primeStrength,primeTShuffle,correctPTChoice,responseSentence,pTSentence,pOSymbols,goodPTChoice,Answer.time_in_minutes,correctPChoices,response_rt,pTwrongAnswer,pOChoice,audio,correctPOChoice,pOSentence,primeOShuffle,response,pTChoice,block_rt,slide_number,workerid,responseChoice,image,Answer.condition,pTSymbols,goodPOChoice,responseSymbols,pOwrongAnswer,primeType,trial_type,btwncondition,slide_type
,,,,,,,12.037066666666666,,,,,,,,,"[0, 'Margaret']",,,1,0,,Margaret,undefined,,,,,,,,bot_check
1,"[0, 1]",True,Some of the symbols are spades.,Some of the symbols are ticks.,"[4, 2, 0]",1,12.037066666666666,True,3999,"[0, 0, 0]",0,,True,Some of the symbols are hearts.,"[1, 0]",,1,11295,,0,1,,undefined,"[2, 3, 0]",0,"[3, 8, 6]","[0, 0, 0]",0,response,alternative,
2,"[0, 1]",True,Some of the symbols are stars.,All of the symbols are stars.,"[9, 0, 8]",1,12.037066666666666,True,3391,"[0, 0, 0]",0,,True,All of the symbols are triangles.,"[1, 0]",,1,7912,,0,1,,undefined,"[6, 3, 8]",0,"[6, 4, 3]","[0, 0, 0]",0,filler,alternative,
3,"[1, 0]",True,There is a circle.,8 + 8 = ?,"[17, 9, 8]",0,12.037066666666666,True,2255,"[2, 0, 0]",1,,True,9 + 8 = ?,"[0, 1]",,0,6472,,0,1,,undefined,"[16, 8, 8]",1,"[7, 4, 3]","[2, 0, 0]",2,filler,alternative,
0,"[1, 0]",True,There is a circle.,There is a club.,"[2, 9, 3]",0,12.037066666666666,True,1351,"[0, 0, 0]",1,,True,There is a tick.,"[0, 1]",,0,5704,,0,0,,undefined,"[1, 7, 8]",1,"[7, 1, 5]","[0, 0, 0]",2,response,alternative,
2,"[1, 0]",True,There are four triangles.,There are six stars.,"[7, 0, 6]",0,12.037066666666666,True,2207,"[0, 0, 0]",0,,True,There are six circles.,"[1, 0]",,0,5184,,0,1,,undefined,"[6, 2, 0]",0,"[9, 4, 7]","[0, 0, 0]",1,filler,alternative,
2,"[1, 0]",True,There are four clubs.,There are six hearts.,"[9, 7, 3]",0,12.037066666666666,True,2383,"[0, 0, 0]",1,,True,There are six triangles.,"[0, 1]",,0,6432,,0,1,,undefined,"[4, 7, 5]",1,"[1, 4, 6]","[0, 0, 0]",1,filler,alternative,
3,"[1, 0]",True,Some of the symbols are diamonds.,7 + 1 = ?,"[3, 2, 1]",0,12.037066666666666,True,2711,"[9, 0, 0]",1,,True,2 + 1 = ?,"[0, 1]",,0,5968,,0,1,,undefined,"[8, 7, 1]",1,"[0, 2, 8]","[2, 0, 0]",0,response,alternative,
1,"[0, 1]",True,Some of the symbols are notes.,Some of the symbols are notes.,"[0, 5, 9]",1,12.037066666666666,True,1743,"[0, 0, 0]",1,,True,Some of the symbols are diamonds.,"[0, 1]",,1,6104,,0,1,,undefined,"[8, 9, 3]",1,"[8, 2, 5]","[0, 0, 0]",0,response,alternative,
3,"[1, 0]",False,There are four ticks.,7 + 5 = ?,"[11, 5, 6]",0,12.037066666666666,False,2007,"[0, 0, 0]",0,,True,5 + 6 = ?,"[1, 0]",,1,5463,,0,1,,undefined,"[12, 7, 5]",0,"[2, 7, 6]","[1, 0, 0]",1,response,alternative,
1,"[1, 0]",True,Some of the symbols are triangles.,Some of the symbols are diamonds.,"[4, 3, 7]",0,12.037066666666666,True,4951,"[0, 0, 0]",0,,True,Some of the symbols are hearts.,"[1, 0]",,0,10296,,0,1,,undefined,"[0, 6, 4]",0,"[9, 7, 0]","[0, 0, 0]",0,response,alternative,
3,"[0, 1]",False,There is a diamond.,3 + 2 = ?,"[12, 9, 3]",1,12.037066666666666,False,1679,"[1, 0, 0]",1,,True,9 + 3 = ?,"[0, 1]",,0,4896,,0,0,,undefined,"[5, 3, 2]",1,"[0, 9, 5]","[5, 0, 0]",2,filler,alternative,
1,"[1, 0]",True,There is a triangle.,There is a spade.,"[9, 4, 1]",0,12.037066666666666,True,1687,"[0, 0, 0]",1,,True,There is a triangle.,"[0, 1]",,0,6448,,0,1,,undefined,"[3, 1, 8]",1,"[9, 2, 5]","[0, 0, 0]",2,filler,alternative,
1,"[0, 1]",True,There is a note.,There is a star.,"[3, 0, 1]",1,12.037066666666666,True,2479,"[0, 0, 0]",0,,True,There is a spade.,"[1, 0]",,1,7168,,0,0,,undefined,"[6, 8, 2]",0,"[8, 3, 2]","[0, 0, 0]",2,response,alternative,
0,"[1, 0]",True,Some of the symbols are clubs.,Some of the symbols are clubs.,"[1, 0, 9]",0,12.037066666666666,True,3591,"[0, 0, 0]",1,,True,Some of the symbols are clubs.,"[0, 1]",,0,13752,,0,1,,undefined,"[1, 5, 2]",1,"[1, 4, 7]","[0, 0, 0]",0,response,alternative,
2,"[0, 1]",True,There are four ticks.,There are six triangles.,"[6, 1, 3]",1,12.037066666666666,True,2023,"[0, 0, 0]",0,,True,There are six stars.,"[1, 0]",,1,4664,,0,1,,undefined,"[9, 1, 0]",0,"[2, 5, 3]","[0, 0, 0]",1,filler,alternative,
2,"[0, 1]",True,There is a heart.,There is a triangle and a note.,"[2, 8, 7]",1,12.037066666666666,True,2343,"[0, 0, 0]",1,,True,There is a tick and a note.,"[0, 1]",,1,5424,,0,1,,undefined,"[9, 8, 1]",1,"[4, 9, 2]","[0, 0, 0]",2,response,alternative,
2,"[0, 1]",True,Some of the symbols are notes.,All of the symbols are squares.,"[8, 4, 2]",1,12.037066666666666,True,3607,"[0, 0, 0]",1,,True,All of the symbols are notes.,"[0, 1]",,1,10440,,0,1,,undefined,"[5, 1, 9]",1,"[8, 2, 1]","[0, 0, 0]",0,response,alternative,
1,"[1, 0]",True,There are four stars.,There are four circles.,"[0, 8, 5]",0,12.037066666666666,True,1895,"[0, 0, 0]",0,,True,There are four diamonds.,"[1, 0]",,0,14632,,0,1,,undefined,"[7, 4, 5]",0,"[6, 7, 8]","[0, 0, 0]",1,filler,alternative,
3,"[1, 0]",False,There is a star.,1 + 9 = ?,"[15, 7, 8]",0,12.037066666666666,False,3623,"[9, 0, 0]",0,,False,7 + 8 = ?,"[0, 1]",,1,8176,,0,1,,undefined,"[10, 1, 9]",1,"[6, 8, 5]","[0, 0, 0]",2,response,alternative,
1,"[1, 0]",True,There is a heart.,There is a club.,"[2, 9, 7]",0,12.037066666666666,True,1895,"[0, 0, 0]",1,,True,There is a tick.,"[0, 1]",,0,5008,,0,1,,undefined,"[1, 6, 5]",1,"[4, 9, 5]","[0, 0, 0]",2,filler,alternative,
2,"[0, 1]",True,Some of the symbols are ticks.,All of the symbols are notes.,"[2, 5, 0]",1,12.037066666666666,True,3607,"[0, 0, 0]",1,,True,All of the symbols are ticks.,"[0, 1]",,1,11480,,0,1,,undefined,"[8, 6, 9]",1,"[2, 5, 3]","[0, 0, 0]",0,response,alternative,
1,"[1, 0]",True,Some of the symbols are hearts.,Some of the symbols are notes.,"[0, 2, 5]",0,12.037066666666666,True,2271,"[0, 0, 0]",0,,True,Some of the symbols are diamonds.,"[1, 0]",,0,8000,,0,1,,undefined,"[8, 7, 6]",0,"[4, 1, 0]","[0, 0, 0]",0,response,alternative,
1,"[0, 1]",True,There is a note.,There is a square.,"[6, 2, 4]",1,12.037066666666666,True,1559,"[0, 0, 0]",0,,True,There is a star.,"[1, 0]",,1,4456,,0,1,,undefined,"[5, 8, 6]",0,"[8, 0, 5]","[0, 0, 0]",2,response,alternative,
0,"[0, 1]",True,There is a square.,There is a triangle.,"[1, 2, 0]",1,12.037066666666666,True,1463,"[0, 0, 0]",1,,True,There is a club.,"[0, 1]",,1,6432,,0,0,,undefined,"[9, 1, 2]",1,"[5, 2, 4]","[0, 0, 0]",2,response,alternative,
0,"[1, 0]",True,There is a triangle.,There is a tick.,"[0, 2, 1]",0,12.037066666666666,True,4159,"[0, 0, 0]",1,,True,There is a diamond.,"[0, 1]",,0,9680,,0,0,,undefined,"[2, 4, 5]",1,"[9, 7, 0]","[0, 0, 0]",2,response,alternative,
2,"[1, 0]",True,There is a circle.,There is a tick and a club.,"[3, 0, 8]",0,12.037066666666666,True,2591,"[0, 0, 0]",1,,True,There is a spade and a diamond.,"[0, 1]",,0,6712,,0,1,,undefined,"[2, 1, 4]",1,"[7, 1, 6]","[0, 0, 0]",2,filler,alternative,
0,"[1, 0]",True,There are four clubs.,There are four clubs.,"[1, 3, 5]",0,12.037066666666666,True,2863,"[0, 0, 0]",0,,True,There are four clubs.,"[1, 0]",,0,14576,,0,1,,undefined,"[1, 7, 2]",0,"[1, 5, 6]","[0, 0, 0]",1,filler,alternative,
3,"[0, 1]",True,There are four ticks.,1 + 9 = ?,"[8, 3, 5]",1,12.037066666666666,False,1711,"[7, 0, 0]",0,,False,3 + 5 = ?,"[0, 1]",,1,6448,,0,1,,undefined,"[10, 1, 9]",1,"[2, 8, 3]","[4, 0, 0]",1,response,alternative,
2,"[0, 1]",True,There is a heart.,There is a heart and a note.,"[7, 1, 2]",1,12.037066666666666,True,2511,"[0, 0, 0]",1,,True,There is a circle and a club.,"[0, 1]",,1,6416,,0,0,,undefined,"[4, 8, 2]",1,"[4, 2, 3]","[0, 0, 0]",2,response,alternative,
3,"[0, 1]",True,There is a note.,2 + 4 = ?,"[7, 2, 5]",1,12.037066666666666,True,2311,"[7, 0, 0]",0,,True,2 + 5 = ?,"[1, 0]",,1,6632,,0,0,,undefined,"[6, 2, 4]",0,"[8, 1, 9]","[8, 0, 0]",2,response,alternative,
1,"[0, 1]",True,Some of the symbols are diamonds.,Some of the symbols are circles.,"[0, 4, 8]",1,12.037066666666666,True,3463,"[0, 0, 0]",1,,True,Some of the symbols are diamonds.,"[0, 1]",,1,9040,,0,0,,undefined,"[7, 0, 4]",1,"[0, 6, 9]","[0, 0, 0]",0,filler,alternative,
2,"[1, 0]",True,There is a spade.,There is a spade and a square.,"[7, 0, 1]",0,12.037066666666666,True,2071,"[0, 0, 0]",0,,True,There is a circle and a diamond.,"[1, 0]",,0,5488,,0,1,,undefined,"[3, 5, 1]",0,"[3, 6, 0]","[0, 0, 0]",2,filler,alternative,
3,"[1, 0]",True,Some of the symbols are squares.,9 + 3 = ?,"[0, 0, 0]",0,12.037066666666666,True,2119,"[6, 0, 0]",1,,True,0 + 0 = ?,"[0, 1]",,0,4688,,0,1,,undefined,"[12, 9, 3]",1,"[5, 8, 3]","[4, 0, 0]",0,filler,alternative,
1,"[0, 1]",True,There are four ticks.,There are four notes.,"[9, 6, 8]",1,12.037066666666666,True,3943,"[0, 0, 0]",0,,True,There are four triangles.,"[1, 0]",,1,6424,,0,0,,undefined,"[8, 4, 5]",0,"[2, 6, 3]","[0, 0, 0]",1,response,alternative,
0,"[1, 0]",True,There are four stars.,There are four notes.,"[8, 0, 2]",0,12.037066666666666,True,2039,"[0, 0, 0]",0,,True,There are four notes.,"[1, 0]",,0,6856,,0,0,,undefined,"[8, 5, 4]",0,"[6, 9, 5]","[0, 0, 0]",1,response,alternative,
3,"[0, 1]",True,Some of the symbols are spades.,8 + 3 = ?,"[2, 0, 2]",1,12.037066666666666,False,2687,"[8, 0, 0]",0,,False,0 + 2 = ?,"[0, 1]",,1,5528,,0,1,,undefined,"[11, 8, 3]",1,"[3, 9, 2]","[8, 0, 0]",0,filler,alternative,
3,"[1, 0]",True,There are four spades.,6 + 3 = ?,"[3, 1, 2]",0,12.037066666666666,False,2127,"[3, 0, 0]",1,,False,1 + 2 = ?,"[1, 0]",,0,4816,,0,1,,undefined,"[9, 6, 3]",0,"[3, 8, 9]","[0, 0, 0]",1,filler,alternative,
1,"[0, 1]",True,Some of the symbols are stars.,Some of the symbols are circles.,"[2, 6, 4]",1,12.037066666666666,True,3055,"[0, 0, 0]",0,,True,Some of the symbols are ticks.,"[1, 0]",,1,8112,,0,1,,undefined,"[7, 6, 3]",0,"[6, 1, 0]","[0, 0, 0]",0,filler,alternative,
0,"[1, 0]",True,There are four notes.,There are four hearts.,"[8, 5, 6]",0,12.037066666666666,True,1863,"[0, 0, 0]",0,,True,There are four notes.,"[1, 0]",,0,6344,,0,1,,undefined,"[4, 5, 2]",0,"[8, 9, 6]","[0, 0, 0]",1,filler,alternative,
1,"[0, 1]",True,There is a club.,There is a spade.,"[1, 5, 3]",1,12.037066666666666,True,1543,"[0, 0, 0]",0,,True,There is a club.,"[1, 0]",,1,5040,,0,0,,undefined,"[3, 5, 1]",0,"[1, 3, 8]","[0, 0, 0]",2,filler,alternative,
3,"[1, 0]",False,Some of the symbols are triangles.,5 + 5 = ?,"[7, 0, 7]",0,12.037066666666666,False,3543,"[9, 0, 0]",0,,False,0 + 7 = ?,"[0, 1]",,1,6104,,0,1,,undefined,"[10, 5, 5]",1,"[9, 0, 4]","[9, 0, 0]",0,filler,alternative,
0,"[1, 0]",True,There is a circle.,There is a star.,"[2, 7, 6]",0,12.037066666666666,True,1543,"[0, 0, 0]",1,,True,There is a tick.,"[0, 1]",,0,4608,,0,1,,undefined,"[6, 1, 4]",1,"[7, 0, 4]","[0, 0, 0]",2,filler,alternative,
3,"[0, 1]",False,There are four triangles.,6 + 5 = ?,"[17, 8, 9]",1,12.037066666666666,False,2535,"[0, 0, 0]",1,,False,8 + 9 = ?,"[1, 0]",,0,5200,,0,0,,undefined,"[11, 6, 5]",0,"[9, 4, 2]","[1, 0, 0]",1,response,alternative,
2,"[0, 1]",True,Some of the symbols are diamonds.,All of the symbols are triangles.,"[8, 9, 3]",1,12.037066666666666,True,3783,"[0, 0, 0]",1,,True,All of the symbols are notes.,"[0, 1]",,1,8184,,0,1,,undefined,"[9, 5, 7]",1,"[0, 5, 6]","[0, 0, 0]",0,filler,alternative,
0,"[0, 1]",True,There is a tick.,There is a diamond.,"[6, 8, 5]",1,12.037066666666666,True,1696,"[0, 0, 0]",0,,True,There is a star.,"[1, 0]",,1,5489,,0,1,,undefined,"[0, 5, 8]",0,"[2, 1, 8]","[0, 0, 0]",2,filler,alternative,
3,"[1, 0]",False,Some of the symbols are triangles.,9 + 9 = ?,"[1, 0, 1]",0,12.037066666666666,False,1575,"[2, 0, 0]",0,,False,0 + 1 = ?,"[0, 1]",,1,4063,,0,0,,undefined,"[18, 9, 9]",1,"[9, 2, 8]","[9, 0, 0]",0,response,alternative,
0,"[0, 1]",True,Some of the symbols are triangles.,Some of the symbols are squares.,"[4, 2, 9]",1,12.037066666666666,True,2399,"[0, 0, 0]",1,,True,Some of the symbols are hearts.,"[0, 1]",,1,6776,,0,1,,undefined,"[5, 3, 4]",1,"[9, 2, 1]","[0, 0, 0]",0,filler,alternative,
2,"[1, 0]",True,There is a heart.,There is a tick and a circle.,"[2, 3, 1]",0,12.037066666666666,True,1711,"[0, 0, 0]",0,,True,There is a tick and a spade.,"[1, 0]",,0,4960,,0,0,,undefined,"[2, 7, 8]",0,"[4, 2, 3]","[0, 0, 0]",2,response,alternative,
1,"[1, 0]",True,There is a circle.,There is a square.,"[6, 4, 3]",0,12.037066666666666,True,2015,"[0, 0, 0]",1,,True,There is a star.,"[0, 1]",,0,5232,,0,1,,undefined,"[5, 0, 7]",1,"[7, 4, 2]","[0, 0, 0]",2,filler,alternative,
0,"[0, 1]",True,Some of the symbols are triangles.,Some of the symbols are hearts.,"[3, 9, 0]",1,12.037066666666666,True,2823,"[0, 0, 0]",1,,True,Some of the symbols are spades.,"[0, 1]",,1,11568,,0,0,,undefined,"[4, 5, 3]",1,"[9, 0, 1]","[0, 0, 0]",0,filler,alternative,
1,"[1, 0]",True,There are four stars.,There are four triangles.,"[0, 9, 3]",0,12.037066666666666,True,2000,"[0, 0, 0]",0,,True,There are four diamonds.,"[1, 0]",,0,5585,,0,0,,undefined,"[9, 5, 6]",0,"[6, 7, 3]","[0, 0, 0]",1,response,alternative,
2,"[0, 1]",True,There are four hearts.,There are six spades.,"[5, 1, 4]",1,12.037066666666666,True,1823,"[0, 0, 0]",0,,True,There are six squares.,"[1, 0]",,1,4767,,0,1,,undefined,"[3, 6, 0]",0,"[4, 7, 0]","[0, 0, 0]",1,filler,alternative,
3,"[0, 1]",False,There is a square.,9 + 3 = ?,"[9, 3, 6]",1,12.037066666666666,False,1287,"[9, 0, 0]",1,,True,3 + 6 = ?,"[0, 1]",,0,4704,,0,0,,undefined,"[12, 9, 3]",1,"[5, 6, 1]","[4, 0, 0]",2,response,alternative,
2,"[0, 1]",True,Some of the symbols are ticks.,All of the symbols are diamonds.,"[8, 4, 3]",1,12.037066666666666,True,2064,"[0, 0, 0]",1,,True,All of the symbols are notes.,"[0, 1]",,1,5521,,0,1,,undefined,"[0, 2, 8]",1,"[2, 7, 4]","[0, 0, 0]",0,filler,alternative,
0,"[1, 0]",True,There is a circle.,There is a note.,"[2, 0, 4]",0,12.037066666666666,True,976,"[0, 0, 0]",1,,True,There is a tick.,"[0, 1]",,0,3664,,0,0,,undefined,"[8, 9, 7]",1,"[7, 2, 4]","[0, 0, 0]",2,response,alternative,
2,"[1, 0]",True,Some of the symbols are spades.,All of the symbols are ticks.,"[0, 9, 8]",0,12.037066666666666,True,2511,"[0, 0, 0]",0,,True,All of the symbols are diamonds.,"[1, 0]",,0,5615,,0,0,,undefined,"[2, 9, 4]",0,"[3, 1, 4]","[0, 0, 0]",0,response,alternative,
3,"[1, 0]",True,There are four triangles.,8 + 5 = ?,"[13, 7, 6]",0,12.037066666666666,False,1399,"[2, 0, 0]",1,,False,7 + 6 = ?,"[1, 0]",,0,4496,,0,1,,undefined,"[13, 8, 5]",0,"[9, 0, 4]","[8, 0, 0]",1,filler,alternative,
2,"[1, 0]",True,There is a triangle.,There is a heart and a tick.,"[6, 1, 3]",0,12.037066666666666,True,2064,"[0, 0, 0]",0,,True,There is a star and a club.,"[1, 0]",,0,9481,,0,1,,undefined,"[4, 2, 1]",0,"[9, 8, 4]","[0, 0, 0]",2,filler,alternative,
0,"[0, 1]",True,Some of the symbols are clubs.,Some of the symbols are clubs.,"[8, 5, 3]",1,12.037066666666666,True,2608,"[0, 0, 0]",1,,True,Some of the symbols are notes.,"[0, 1]",,1,7232,,0,0,,undefined,"[1, 5, 9]",1,"[1, 7, 8]","[0, 0, 0]",0,response,alternative,
3,"[0, 1]",False,Some of the symbols are spades.,6 + 6 = ?,"[3, 0, 3]",1,12.037066666666666,False,2359,"[3, 0, 0]",1,,False,0 + 3 = ?,"[1, 0]",,0,5359,,0,0,,undefined,"[12, 6, 6]",0,"[3, 4, 8]","[7, 0, 0]",0,response,alternative,
3,"[1, 0]",True,Some of the symbols are circles.,6 + 6 = ?,"[12, 8, 4]",0,12.037066666666666,True,1391,"[7, 0, 0]",1,,True,8 + 4 = ?,"[0, 1]",,0,3848,,0,0,,undefined,"[12, 6, 6]",1,"[7, 0, 5]","[3, 0, 0]",0,response,alternative,
2,"[1, 0]",True,There are four spades.,There are six squares.,"[3, 5, 7]",0,12.037066666666666,True,1271,"[0, 0, 0]",0,,True,There are six spades.,"[1, 0]",,0,3840,,0,1,,undefined,"[5, 2, 8]",0,"[3, 6, 5]","[0, 0, 0]",1,response,alternative,
0,"[1, 0]",True,There are four notes.,There are four hearts.,"[4, 0, 9]",0,12.037066666666666,True,1703,"[0, 0, 0]",1,,True,There are four hearts.,"[0, 1]",,0,7952,,0,0,,undefined,"[4, 9, 2]",1,"[8, 9, 3]","[0, 0, 0]",1,response,alternative,
3,"[1, 0]",True,There is a spade.,3 + 6 = ?,"[6, 6, 0]",0,12.037066666666666,True,1815,"[0, 0, 0]",1,,True,6 + 0 = ?,"[0, 1]",,0,4488,,0,0,,undefined,"[9, 3, 6]",1,"[3, 2, 4]","[7, 0, 0]",2,response,alternative,
0,"[0, 1]",True,Some of the symbols are circles.,Some of the symbols are stars.,"[7, 9, 5]",1,12.037066666666666,True,1655,"[0, 0, 0]",0,,True,Some of the symbols are circles.,"[1, 0]",,1,4688,,0,0,,undefined,"[6, 7, 5]",0,"[7, 6, 0]","[0, 0, 0]",0,response,alternative,
0,"[0, 1]",True,There are four squares.,There are four ticks.,"[4, 5, 3]",1,12.037066666666666,True,1215,"[0, 0, 0]",0,,True,There are four hearts.,"[1, 0]",,1,4040,,0,0,,undefined,"[2, 0, 8]",0,"[5, 4, 1]","[0, 0, 0]",1,response,alternative,
1,"[0, 1]",True,There is a circle.,There is a square.,"[0, 8, 9]",1,12.037066666666666,True,1263,"[0, 0, 0]",0,,True,There is a diamond.,"[1, 0]",,1,5352,,0,0,,undefined,"[5, 9, 2]",0,"[7, 2, 1]","[0, 0, 0]",2,response,alternative,
0,"[0, 1]",True,There is a square.,There is a circle.,"[2, 3, 8]",1,12.037066666666666,True,2255,"[0, 0, 0]",0,,True,There is a tick.,"[1, 0]",,1,6664,,0,1,,undefined,"[7, 9, 6]",0,"[5, 8, 1]","[0, 0, 0]",2,filler,alternative,
2,"[1, 0]",True,There is a circle.,There is a circle and a heart.,"[6, 5, 0]",0,12.037066666666666,True,1719,"[0, 0, 0]",0,,True,There is a star and a square.,"[1, 0]",,0,11016,,0,1,,undefined,"[7, 4, 0]",0,"[7, 9, 8]","[0, 0, 0]",2,filler,alternative,
3,"[1, 0]",False,Some of the symbols are circles.,2 + 4 = ?,"[11, 5, 6]",0,12.037066666666666,False,1703,"[0, 0, 0]",0,,True,5 + 6 = ?,"[1, 0]",,1,4312,,0,1,,undefined,"[6, 2, 4]",0,"[7, 5, 4]","[5, 0, 0]",0,filler,alternative,
1,"[0, 1]",True,There are four triangles.,There are four triangles.,"[3, 5, 2]",1,12.037066666666666,True,1615,"[0, 0, 0]",0,,True,There are four spades.,"[1, 0]",,1,5368,,0,0,,undefined,"[9, 4, 8]",0,"[9, 6, 2]","[0, 0, 0]",1,response,alternative,
3,"[0, 1]",True,There is a tick.,4 + 1 = ?,"[0, 0, 0]",1,12.037066666666666,False,1655,"[2, 0, 0]",0,,False,0 + 0 = ?,"[0, 1]",,1,7120,,0,1,,undefined,"[5, 4, 1]",1,"[2, 5, 3]","[0, 0, 0]",2,filler,alternative,
1,"[1, 0]",True,There are four ticks.,There are four circles.,"[8, 4, 6]",0,12.037066666666666,True,2327,"[0, 0, 0]",0,,True,There are four notes.,"[1, 0]",,0,4640,,0,0,,undefined,"[7, 1, 0]",0,"[2, 4, 9]","[0, 0, 0]",1,response,alternative,
3,"[0, 1]",False,There are four clubs.,1 + 9 = ?,"[2, 1, 1]",1,12.037066666666666,False,1343,"[2, 0, 0]",1,,True,1 + 1 = ?,"[0, 1]",,0,3760,,0,0,,undefined,"[10, 1, 9]",1,"[1, 9, 2]","[4, 0, 0]",1,response,alternative,
3,"[1, 0]",True,There is a triangle.,4 + 7 = ?,"[10, 9, 1]",0,12.037066666666666,False,1495,"[2, 0, 0]",1,,False,9 + 1 = ?,"[1, 0]",,0,5128,,0,1,,undefined,"[11, 4, 7]",0,"[9, 3, 6]","[0, 0, 0]",2,filler,alternative,
0,"[1, 0]",True,There are four hearts.,There are four spades.,"[9, 2, 5]",0,12.037066666666666,True,1567,"[0, 0, 0]",1,,True,There are four triangles.,"[0, 1]",,0,4232,,0,1,,undefined,"[3, 6, 5]",1,"[4, 8, 0]","[0, 0, 0]",1,filler,alternative,
2,"[1, 0]",True,Some of the symbols are stars.,All of the symbols are spades.,"[2, 3, 5]",0,12.037066666666666,True,1687,"[0, 0, 0]",0,,True,All of the symbols are ticks.,"[1, 0]",,0,5008,,0,0,,undefined,"[3, 2, 4]",0,"[6, 1, 2]","[0, 0, 0]",0,response,alternative,
2,"[1, 0]",True,There are four spades.,There are six spades.,"[2, 3, 1]",0,12.037066666666666,True,2447,"[0, 0, 0]",0,,True,There are six ticks.,"[1, 0]",,0,4768,,0,0,,undefined,"[3, 1, 5]",0,"[3, 6, 4]","[0, 0, 0]",1,response,alternative,
2,"[0, 1]",True,Some of the symbols are circles.,All of the symbols are squares.,"[5, 2, 8]",1,12.037066666666666,True,2559,"[0, 0, 0]",0,,True,All of the symbols are squares.,"[1, 0]",,1,5824,,0,1,,undefined,"[5, 9, 1]",0,"[7, 8, 2]","[0, 0, 0]",0,filler,alternative,
1,"[0, 1]",True,There are four triangles.,There are four squares.,"[9, 7, 0]",1,12.037066666666666,True,1839,"[0, 0, 0]",1,,True,There are four triangles.,"[0, 1]",,1,5248,,0,1,,undefined,"[5, 0, 9]",1,"[9, 2, 7]","[0, 0, 0]",1,filler,alternative,
1,"[1, 0]",True,Some of the symbols are diamonds.,Some of the symbols are triangles.,"[4, 1, 8]",0,12.037066666666666,True,2624,"[0, 0, 0]",1,,True,Some of the symbols are hearts.,"[0, 1]",,0,7560,,0,1,,undefined,"[9, 0, 5]",1,"[0, 4, 1]","[0, 0, 0]",0,filler,alternative,
0,"[0, 1]",True,There are four clubs.,There are four hearts.,"[2, 7, 8]",1,12.037066666666666,True,2071,"[0, 0, 0]",0,,True,There are four ticks.,"[1, 0]",,1,5408,,0,1,,undefined,"[4, 0, 2]",0,"[1, 5, 8]","[0, 0, 0]",1,filler,alternative,
1,"[1, 0]",True,There is a diamond.,There is a diamond.,"[1, 8, 4]",0,12.037066666666666,True,2135,"[0, 0, 0]",1,,True,There is a club.,"[0, 1]",,0,6264,,0,0,,undefined,"[0, 3, 6]",1,"[0, 2, 3]","[0, 0, 0]",2,response,alternative,
0,"[1, 0]",True,Some of the symbols are stars.,Some of the symbols are ticks.,"[3, 5, 8]",0,12.037066666666666,True,1607,"[0, 0, 0]",1,,True,Some of the symbols are spades.,"[0, 1]",,0,5600,,0,1,,undefined,"[2, 8, 0]",1,"[6, 7, 8]","[0, 0, 0]",0,filler,alternative,
2,"[0, 1]",True,There is a tick.,There is a square and a spade.,"[4, 7, 3]",1,12.037066666666666,True,1439,"[0, 0, 0]",0,,True,There is a heart and a circle.,"[1, 0]",,1,4576,,0,0,,undefined,"[5, 3, 2]",0,"[2, 6, 0]","[0, 0, 0]",2,response,alternative,
1,"[0, 1]",True,There are four hearts.,There are four stars.,"[3, 1, 9]",1,12.037066666666666,True,1279,"[0, 0, 0]",0,,True,There are four spades.,"[1, 0]",,1,3720,,0,1,,undefined,"[6, 3, 0]",0,"[4, 3, 6]","[0, 0, 0]",1,filler,alternative,
0,"[0, 1]",True,There is a note.,There is a triangle.,"[6, 2, 0]",1,12.037066666666666,True,1567,"[0, 0, 0]",1,,True,There is a star.,"[0, 1]",,1,4576,,0,1,,undefined,"[9, 0, 7]",1,"[8, 7, 6]","[0, 0, 0]",2,filler,alternative,
1,"[0, 1]",True,Some of the symbols are triangles.,Some of the symbols are ticks.,"[7, 6, 1]",1,12.037066666666666,True,1903,"[0, 0, 0]",1,,True,Some of the symbols are circles.,"[0, 1]",,1,5976,,0,1,,undefined,"[2, 0, 3]",1,"[9, 2, 8]","[0, 0, 0]",0,filler,alternative,
1,"[1, 0]",True,There are four ticks.,There are four diamonds.,"[9, 0, 5]",0,12.037066666666666,True,1471,"[0, 0, 0]",0,,True,There are four triangles.,"[1, 0]",,0,4016,,0,1,,undefined,"[0, 1, 4]",0,"[2, 3, 1]","[0, 0, 0]",1,filler,alternative,
3,"[0, 1]",False,There are four circles.,2 + 3 = ?,"[11, 8, 3]",1,12.037066666666666,False,1319,"[7, 0, 0]",1,,True,8 + 3 = ?,"[0, 1]",,0,3512,,0,1,,undefined,"[5, 2, 3]",1,"[7, 2, 8]","[4, 0, 0]",1,filler,alternative,
2,"[0, 1]",True,There are four squares.,There are six hearts.,"[8, 5, 4]",1,12.037066666666666,True,2183,"[0, 0, 0]",1,,True,There are six notes.,"[0, 1]",,1,5352,,0,0,,undefined,"[4, 2, 0]",1,"[5, 1, 6]","[0, 0, 0]",1,response,alternative,
3,"[0, 1]",False,There are four circles.,0 + 6 = ?,"[15, 9, 6]",1,12.037066666666666,False,1383,"[8, 0, 0]",1,,False,9 + 6 = ?,"[1, 0]",,0,4984,,0,1,,undefined,"[6, 0, 6]",0,"[7, 1, 2]","[5, 0, 0]",1,filler,alternative,
0,"[1, 0]",True,Some of the symbols are clubs.,Some of the symbols are notes.,"[8, 0, 5]",0,12.037066666666666,True,1271,"[0, 0, 0]",0,,True,Some of the symbols are notes.,"[1, 0]",,0,4744,,0,0,,undefined,"[8, 0, 7]",0,"[1, 7, 6]","[0, 0, 0]",0,response,alternative,
0,"[0, 1]",True,There are four ticks.,There are four squares.,"[2, 3, 7]",1,12.037066666666666,True,1407,"[0, 0, 0]",1,,True,There are four ticks.,"[0, 1]",,1,4392,,0,0,,undefined,"[5, 2, 7]",1,"[2, 0, 1]","[0, 0, 0]",1,response,alternative,
0,"[0, 1]",True,Some of the symbols are spades.,Some of the symbols are squares.,"[4, 9, 8]",1,12.037066666666666,True,2319,"[0, 0, 0]",0,,True,Some of the symbols are hearts.,"[1, 0]",,1,5472,,0,1,,undefined,"[5, 8, 7]",0,"[3, 2, 0]","[0, 0, 0]",0,filler,alternative,
2,"[1, 0]",True,There are four diamonds.,There are six diamonds.,"[5, 9, 4]",0,12.037066666666666,True,2087,"[0, 0, 0]",1,,True,There are six squares.,"[0, 1]",,0,7168,,0,0,,undefined,"[0, 2, 6]",1,"[0, 9, 8]","[0, 0, 0]",1,response,alternative,
,,,,,,,11.31845,,,,,,,,,"[0, 'Mary']",,,1,1,,Mary,undefined,,,,,,,,bot_check
3,"[1, 0]",False,There is a triangle.,5 + 4 = ?,"[18, 9, 9]",0,11.31845,False,3097,"[7, 0, 0]",0,,True,9 + 9 = ?,"[1, 0]",,1,7231,,1,0,,undefined,"[9, 5, 4]",0,"[9, 5, 8]","[6, 0, 0]",2,response,alternative,
2,"[0, 1]",True,Some of the symbols are clubs.,All of the symbols are triangles.,"[2, 5, 7]",1,11.31845,True,3663,"[0, 0, 0]",1,,True,All of the symbols are ticks.,"[0, 1]",,1,9245,,1,0,,undefined,"[9, 0, 1]",1,"[1, 5, 3]","[0, 0, 0]",0,response,alternative,
2,"[0, 1]",True,There are four diamonds.,There are six spades.,"[3, 5, 6]",1,11.31845,True,2820,"[0, 0, 0]",0,,True,There are six spades.,"[1, 0]",,1,8496,,1,1,,undefined,"[3, 6, 4]",0,"[0, 6, 5]","[0, 0, 0]",1,filler,alternative,
2,"[0, 1]",True,Some of the symbols are triangles.,All of the symbols are diamonds.,"[0, 2, 7]",1,11.31845,True,2445,"[0, 0, 0]",1,,True,All of the symbols are diamonds.,"[0, 1]",,1,6547,,1,0,,undefined,"[0, 9, 3]",1,"[9, 0, 7]","[0, 0, 0]",0,response,alternative,
0,"[1, 0]",True,There are four clubs.,There are four triangles.,"[9, 7, 4]",0,11.31845,True,2410,"[0, 0, 0]",0,,True,There are four triangles.,"[1, 0]",,0,10319,,1,1,,undefined,"[9, 0, 7]",0,"[1, 5, 0]","[0, 0, 0]",1,filler,alternative,
0,"[1, 0]",True,There is a star.,There is a note.,"[1, 5, 6]",0,11.31845,True,2420,"[0, 0, 0]",1,,True,There is a club.,"[0, 1]",,0,8888,,1,1,,undefined,"[8, 6, 2]",1,"[6, 3, 5]","[0, 0, 0]",2,filler,alternative,
3,"[1, 0]",False,There is a heart.,7 + 7 = ?,"[14, 8, 6]",0,11.31845,False,1697,"[1, 0, 0]",0,,True,8 + 6 = ?,"[1, 0]",,1,5574,,1,0,,undefined,"[14, 7, 7]",0,"[4, 6, 5]","[8, 0, 0]",2,response,alternative,
1,"[1, 0]",True,There are four spades.,There are four clubs.,"[8, 0, 6]",0,11.31845,True,2846,"[0, 0, 0]",1,,True,There are four notes.,"[0, 1]",,0,7884,,1,0,,undefined,"[1, 2, 3]",1,"[3, 5, 4]","[0, 0, 0]",1,response,alternative,
1,"[1, 0]",True,There are four diamonds.,There are four clubs.,"[1, 4, 0]",0,11.31845,True,2292,"[0, 0, 0]",1,,True,There are four clubs.,"[0, 1]",,0,6817,,1,1,,undefined,"[1, 0, 3]",1,"[0, 8, 4]","[0, 0, 0]",1,filler,alternative,
0,"[0, 1]",True,There are four ticks.,There are four circles.,"[0, 9, 1]",1,11.31845,True,1558,"[0, 0, 0]",0,,True,There are four diamonds.,"[1, 0]",,1,5422,,1,0,,undefined,"[7, 4, 3]",0,"[2, 9, 5]","[0, 0, 0]",1,response,alternative,
0,"[1, 0]",True,There are four diamonds.,There are four hearts.,"[3, 5, 4]",0,11.31845,True,2017,"[0, 0, 0]",0,,True,There are four spades.,"[1, 0]",,0,5740,,1,0,,undefined,"[4, 0, 2]",0,"[0, 1, 9]","[0, 0, 0]",1,response,alternative,
1,"[0, 1]",True,Some of the symbols are spades.,Some of the symbols are hearts.,"[1, 4, 6]",1,11.31845,True,2683,"[0, 0, 0]",0,,True,Some of the symbols are clubs.,"[1, 0]",,1,10475,,1,1,,undefined,"[4, 0, 6]",0,"[3, 5, 6]","[0, 0, 0]",0,filler,alternative,
3,"[0, 1]",False,Some of the symbols are hearts.,9 + 3 = ?,"[4, 0, 4]",1,11.31845,False,2542,"[1, 0, 0]",1,,False,0 + 4 = ?,"[1, 0]",,0,6238,,1,1,,undefined,"[12, 9, 3]",0,"[4, 2, 1]","[5, 0, 0]",0,filler,alternative,
1,"[0, 1]",True,There is a heart.,There is a square.,"[9, 4, 0]",1,11.31845,True,2309,"[0, 0, 0]",1,,True,There is a triangle.,"[0, 1]",,1,9251,,1,0,,undefined,"[5, 7, 6]",1,"[4, 1, 9]","[0, 0, 0]",2,response,alternative,
3,"[0, 1]",False,Some of the symbols are triangles.,6 + 3 = ?,"[12, 9, 3]",1,11.31845,False,2955,"[0, 0, 0]",1,,True,9 + 3 = ?,"[0, 1]",,0,6289,,1,1,,undefined,"[9, 6, 3]",1,"[9, 4, 0]","[2, 0, 0]",0,filler,alternative,
1,"[1, 0]",True,Some of the symbols are diamonds.,Some of the symbols are spades.,"[1, 6, 7]",0,11.31845,True,2496,"[0, 0, 0]",1,,True,Some of the symbols are clubs.,"[0, 1]",,0,7725,,1,0,,undefined,"[3, 5, 2]",1,"[0, 4, 7]","[0, 0, 0]",0,response,alternative,
3,"[0, 1]",False,Some of the symbols are circles.,0 + 9 = ?,"[5, 3, 2]",1,11.31845,False,2750,"[9, 0, 0]",0,,True,3 + 2 = ?,"[1, 0]",,0,9154,,1,1,,undefined,"[9, 0, 9]",0,"[7, 9, 5]","[5, 0, 0]",0,filler,alternative,
0,"[0, 1]",True,Some of the symbols are notes.,Some of the symbols are spades.,"[2, 5, 6]",1,11.31845,True,2518,"[0, 0, 0]",1,,True,Some of the symbols are ticks.,"[0, 1]",,1,8928,,1,1,,undefined,"[3, 1, 0]",1,"[8, 4, 1]","[0, 0, 0]",0,filler,alternative,
1,"[1, 0]",True,Some of the symbols are stars.,Some of the symbols are hearts.,"[6, 1, 0]",0,11.31845,True,2082,"[0, 0, 0]",1,,True,Some of the symbols are stars.,"[0, 1]",,0,7304,,1,0,,undefined,"[4, 8, 1]",1,"[6, 7, 8]","[0, 0, 0]",0,response,alternative,
2,"[1, 0]",True,There is a heart.,There is a star and a circle.,"[9, 3, 2]",0,11.31845,True,2053,"[0, 0, 0]",0,,True,There is a triangle and a spade.,"[1, 0]",,0,6893,,1,1,,undefined,"[6, 7, 0]",0,"[4, 8, 5]","[0, 0, 0]",2,filler,alternative,
0,"[0, 1]",True,There is a diamond.,There is a spade.,"[4, 6, 1]",1,11.31845,True,2933,"[0, 0, 0]",0,,True,There is a heart.,"[1, 0]",,1,19762,,1,0,,undefined,"[3, 1, 8]",0,"[0, 6, 3]","[0, 0, 0]",2,response,alternative,
2,"[0, 1]",True,There is a square.,There is a tick and a triangle.,"[6, 7, 2]",1,11.31845,True,1965,"[0, 0, 0]",1,,True,There is a star and a circle.,"[0, 1]",,1,5507,,1,0,,undefined,"[2, 9, 4]",1,"[5, 1, 2]","[0, 0, 0]",2,response,alternative,
2,"[0, 1]",True,There are four ticks.,There are six spades.,"[5, 7, 8]",1,11.31845,True,1837,"[0, 0, 0]",0,,True,There are six squares.,"[1, 0]",,1,7278,,1,0,,undefined,"[3, 9, 4]",0,"[2, 6, 5]","[0, 0, 0]",1,response,alternative,
2,"[1, 0]",True,There is a tick.,There is a diamond and a note.,"[3, 2, 9]",0,11.31845,True,1516,"[0, 0, 0]",0,,True,There is a spade and a tick.,"[1, 0]",,0,5779,,1,0,,undefined,"[0, 8, 2]",0,"[2, 4, 3]","[0, 0, 0]",2,response,alternative,
3,"[0, 1]",False,Some of the symbols are triangles.,9 + 1 = ?,"[10, 9, 1]",1,11.31845,False,2299,"[7, 0, 0]",1,,True,9 + 1 = ?,"[0, 1]",,0,6463,,1,0,,undefined,"[10, 9, 1]",1,"[9, 7, 6]","[4, 0, 0]",0,response,alternative,
1,"[0, 1]",True,There is a heart.,There is a tick.,"[5, 2, 8]",1,11.31845,True,1736,"[0, 0, 0]",1,,True,There is a square.,"[0, 1]",,1,5732,,1,0,,undefined,"[2, 9, 7]",1,"[4, 2, 5]","[0, 0, 0]",2,response,alternative,
3,"[1, 0]",True,There are four diamonds.,3 + 5 = ?,"[4, 1, 3]",0,11.31845,True,4299,"[3, 0, 0]",1,,True,1 + 3 = ?,"[0, 1]",,0,7401,,1,1,,undefined,"[8, 3, 5]",1,"[0, 3, 8]","[8, 0, 0]",1,filler,alternative,
1,"[1, 0]",True,There are four stars.,There are four hearts.,"[7, 2, 0]",0,11.31845,True,2133,"[0, 0, 0]",1,,True,There are four circles.,"[0, 1]",,0,6487,,1,1,,undefined,"[4, 8, 6]",1,"[6, 1, 7]","[0, 0, 0]",1,filler,alternative,
2,"[1, 0]",True,There is a tick.,There is a diamond and a triangle.,"[0, 7, 8]",0,11.31845,True,1818,"[0, 0, 0]",1,,True,There is a diamond and a circle.,"[0, 1]",,0,6485,,1,1,,undefined,"[0, 9, 4]",1,"[2, 3, 9]","[0, 0, 0]",2,filler,alternative,
3,"[0, 1]",True,There is a circle.,5 + 0 = ?,"[9, 5, 4]",1,11.31845,False,2418,"[4, 0, 0]",0,,False,5 + 4 = ?,"[0, 1]",,1,5824,,1,1,,undefined,"[5, 5, 0]",1,"[7, 6, 1]","[9, 0, 0]",2,filler,alternative,
2,"[0, 1]",True,There is a star.,There is a circle and a star.,"[1, 5, 8]",1,11.31845,True,1715,"[0, 0, 0]",0,,True,There is a club and a square.,"[1, 0]",,1,6283,,1,0,,undefined,"[7, 6, 9]",0,"[6, 0, 8]","[0, 0, 0]",2,response,alternative,
1,"[0, 1]",True,There is a tick.,There is a spade.,"[6, 1, 2]",1,11.31845,True,1693,"[0, 0, 0]",0,,True,There is a star.,"[1, 0]",,1,5370,,1,1,,undefined,"[3, 0, 8]",0,"[2, 4, 0]","[0, 0, 0]",2,filler,alternative,
2,"[1, 0]",True,There are four triangles.,There are six notes.,"[8, 1, 4]",0,11.31845,True,1809,"[0, 0, 0]",1,,True,There are six notes.,"[0, 1]",,0,5400,,1,0,,undefined,"[8, 7, 4]",1,"[9, 1, 2]","[0, 0, 0]",1,response,alternative,
2,"[0, 1]",True,There are four triangles.,There are six stars.,"[5, 7, 1]",1,11.31845,True,1847,"[0, 0, 0]",0,,True,There are six squares.,"[1, 0]",,1,5684,,1,1,,undefined,"[6, 8, 3]",0,"[9, 8, 3]","[0, 0, 0]",1,filler,alternative,
1,"[0, 1]",True,Some of the symbols are squares.,Some of the symbols are spades.,"[3, 6, 0]",1,11.31845,True,2404,"[0, 0, 0]",1,,True,Some of the symbols are spades.,"[0, 1]",,1,9640,,1,0,,undefined,"[3, 7, 9]",1,"[5, 0, 1]","[0, 0, 0]",0,response,alternative,
3,"[0, 1]",False,There are four stars.,4 + 9 = ?,"[0, 0, 0]",1,11.31845,False,2447,"[4, 0, 0]",1,,True,0 + 0 = ?,"[0, 1]",,0,6788,,1,1,,undefined,"[13, 4, 9]",1,"[6, 9, 8]","[9, 0, 0]",1,filler,alternative,
2,"[1, 0]",True,There are four diamonds.,There are six stars.,"[9, 7, 6]",0,11.31845,True,2475,"[0, 0, 0]",1,,True,There are six triangles.,"[0, 1]",,0,5820,,1,0,,undefined,"[6, 1, 3]",1,"[0, 9, 4]","[0, 0, 0]",1,response,alternative,
0,"[1, 0]",True,Some of the symbols are stars.,Some of the symbols are spades.,"[5, 0, 6]",0,11.31845,True,2284,"[0, 0, 0]",1,,True,Some of the symbols are squares.,"[0, 1]",,0,7862,,1,1,,undefined,"[3, 8, 7]",1,"[6, 0, 9]","[0, 0, 0]",0,filler,alternative,
0,"[1, 0]",True,There are four triangles.,There are four circles.,"[9, 4, 7]",0,11.31845,True,2103,"[0, 0, 0]",0,,True,There are four triangles.,"[1, 0]",,0,6372,,1,1,,undefined,"[7, 0, 1]",0,"[9, 2, 8]","[0, 0, 0]",1,filler,alternative,
3,"[0, 1]",False,There are four squares.,6 + 3 = ?,"[12, 9, 3]",1,11.31845,False,1495,"[4, 0, 0]",1,,False,9 + 3 = ?,"[1, 0]",,0,5040,,1,1,,undefined,"[9, 6, 3]",0,"[5, 9, 6]","[9, 0, 0]",1,filler,alternative,
1,"[1, 0]",True,There are four hearts.,There are four hearts.,"[0, 4, 2]",0,11.31845,True,1441,"[0, 0, 0]",0,,True,There are four diamonds.,"[1, 0]",,0,4722,,1,1,,undefined,"[4, 0, 8]",0,"[4, 5, 9]","[0, 0, 0]",1,filler,alternative,
0,"[0, 1]",True,Some of the symbols are triangles.,Some of the symbols are clubs.,"[0, 1, 3]",1,11.31845,True,2175,"[0, 0, 0]",1,,True,Some of the symbols are diamonds.,"[0, 1]",,1,9270,,1,1,,undefined,"[1, 6, 2]",1,"[9, 0, 2]","[0, 0, 0]",0,filler,alternative,
2,"[0, 1]",True,There is a square.,There is a spade and a circle.,"[3, 0, 9]",1,11.31845,True,2151,"[0, 0, 0]",0,,True,There is a spade and a diamond.,"[1, 0]",,1,6142,,1,1,,undefined,"[3, 7, 1]",0,"[5, 6, 7]","[0, 0, 0]",2,filler,alternative,
2,"[0, 1]",True,Some of the symbols are spades.,All of the symbols are notes.,"[1, 4, 3]",1,11.31845,False,2765,"[0, 0, 0]",1,,False,All of the symbols are clubs.,"[1, 0]",,1,7516,,1,1,,undefined,"[8, 2, 6]",0,"[3, 7, 1]","[0, 0, 0]",0,filler,alternative,
0,"[0, 1]",True,There is a club.,There is a diamond.,"[2, 7, 6]",1,11.31845,True,2101,"[0, 0, 0]",1,,True,There is a tick.,"[0, 1]",,1,6152,,1,1,,undefined,"[0, 1, 9]",1,"[1, 6, 8]","[0, 0, 0]",2,filler,alternative,
0,"[1, 0]",True,There is a triangle.,There is a circle.,"[4, 1, 7]",0,11.31845,True,1839,"[0, 0, 0]",0,,True,There is a heart.,"[1, 0]",,0,10137,,1,1,,undefined,"[7, 5, 8]",0,"[9, 5, 2]","[0, 0, 0]",2,filler,alternative,
3,"[1, 0]",False,There are four squares.,1 + 1 = ?,"[8, 2, 6]",0,11.31845,False,1544,"[9, 0, 0]",0,,True,2 + 6 = ?,"[1, 0]",,1,3960,,1,0,,undefined,"[2, 1, 1]",0,"[5, 7, 8]","[1, 0, 0]",1,response,alternative,
0,"[0, 1]",True,There is a circle.,There is a triangle.,"[2, 7, 5]",1,11.31845,True,1536,"[0, 0, 0]",0,,True,There is a tick.,"[1, 0]",,1,4160,,1,1,,undefined,"[9, 2, 7]",0,"[7, 4, 2]","[0, 0, 0]",2,filler,alternative,
3,"[1, 0]",False,There are four hearts.,6 + 8 = ?,"[7, 2, 5]",0,11.31845,False,1536,"[0, 0, 0]",0,,True,2 + 5 = ?,"[1, 0]",,1,4320,,1,0,,undefined,"[14, 6, 8]",0,"[4, 5, 6]","[1, 0, 0]",1,response,alternative,
3,"[0, 1]",True,There are four notes.,6 + 7 = ?,"[14, 9, 5]",1,11.31845,True,1496,"[1, 0, 0]",0,,True,9 + 5 = ?,"[1, 0]",,1,4248,,1,0,,undefined,"[13, 6, 7]",0,"[8, 4, 2]","[4, 0, 0]",1,response,alternative,
1,"[0, 1]",True,There are four notes.,There are four ticks.,"[6, 7, 5]",1,11.31845,True,1767,"[0, 0, 0]",1,,True,There are four stars.,"[0, 1]",,1,6056,,1,0,,undefined,"[2, 7, 6]",1,"[8, 6, 4]","[0, 0, 0]",1,response,alternative,
0,"[1, 0]",True,There are four clubs.,There are four hearts.,"[9, 4, 2]",0,11.31845,True,1785,"[0, 0, 0]",0,,True,There are four triangles.,"[1, 0]",,0,4729,,1,1,,undefined,"[4, 3, 5]",0,"[1, 9, 0]","[0, 0, 0]",1,filler,alternative,
1,"[1, 0]",True,There is a triangle.,There is a star.,"[0, 5, 2]",0,11.31845,True,1728,"[0, 0, 0]",0,,True,There is a diamond.,"[1, 0]",,0,5183,,1,1,,undefined,"[6, 0, 9]",0,"[9, 1, 5]","[0, 0, 0]",2,filler,alternative,
3,"[0, 1]",False,There is a diamond.,4 + 4 = ?,"[11, 4, 7]",1,11.31845,False,1695,"[5, 0, 0]",1,,False,4 + 7 = ?,"[1, 0]",,0,4600,,1,0,,undefined,"[8, 4, 4]",0,"[0, 3, 6]","[2, 0, 0]",2,response,alternative,
3,"[1, 0]",True,Some of the symbols are clubs.,2 + 1 = ?,"[6, 0, 6]",0,11.31845,False,2263,"[2, 0, 0]",1,,False,0 + 6 = ?,"[1, 0]",,0,5096,,1,0,,undefined,"[3, 2, 1]",0,"[1, 7, 6]","[4, 0, 0]",0,response,alternative,
3,"[1, 0]",False,There is a tick.,0 + 8 = ?,"[9, 7, 2]",0,11.31845,False,1952,"[9, 0, 0]",0,,True,7 + 2 = ?,"[1, 0]",,1,4832,,1,1,,undefined,"[8, 0, 8]",0,"[2, 9, 3]","[3, 0, 0]",2,filler,alternative,
0,"[0, 1]",True,There are four circles.,There are four notes.,"[7, 8, 1]",1,11.31845,True,1159,"[0, 0, 0]",0,,True,There are four circles.,"[1, 0]",,1,4088,,1,0,,undefined,"[8, 1, 7]",0,"[7, 3, 4]","[0, 0, 0]",1,response,alternative,
1,"[0, 1]",True,There is a triangle.,There is a diamond.,"[8, 1, 0]",1,11.31845,True,1608,"[0, 0, 0]",1,,True,There is a note.,"[0, 1]",,1,4488,,1,0,,undefined,"[0, 4, 5]",1,"[9, 3, 2]","[0, 0, 0]",2,response,alternative,
2,"[1, 0]",True,There are four diamonds.,There are six hearts.,"[1, 3, 9]",0,11.31845,True,1807,"[0, 0, 0]",0,,True,There are six clubs.,"[1, 0]",,0,5008,,1,1,,undefined,"[4, 1, 0]",0,"[0, 6, 2]","[0, 0, 0]",1,filler,alternative,
1,"[1, 0]",True,There is a club.,There is a note.,"[1, 3, 0]",0,11.31845,True,1719,"[0, 0, 0]",0,,True,There is a club.,"[1, 0]",,0,4432,,1,0,,undefined,"[8, 9, 0]",0,"[1, 4, 2]","[0, 0, 0]",2,response,alternative,
0,"[0, 1]",True,There is a note.,There is a diamond.,"[8, 7, 6]",1,11.31845,True,1688,"[0, 0, 0]",1,,True,There is a note.,"[0, 1]",,1,4592,,1,0,,undefined,"[0, 3, 8]",1,"[8, 1, 6]","[0, 0, 0]",2,response,alternative,
2,"[1, 0]",True,Some of the symbols are stars.,All of the symbols are ticks.,"[2, 5, 0]",0,11.31845,True,3751,"[0, 0, 0]",1,,True,All of the symbols are ticks.,"[0, 1]",,0,6416,,1,1,,undefined,"[2, 7, 6]",1,"[6, 0, 7]","[0, 0, 0]",0,filler,alternative,
3,"[1, 0]",True,There are four circles.,5 + 1 = ?,"[6, 1, 5]",0,11.31845,True,1664,"[7, 0, 0]",1,,True,1 + 5 = ?,"[0, 1]",,0,4456,,1,0,,undefined,"[6, 5, 1]",1,"[7, 1, 0]","[9, 0, 0]",1,response,alternative,
0,"[0, 1]",True,There is a tick.,There is a tick.,"[6, 9, 3]",1,11.31845,True,1192,"[0, 0, 0]",0,,True,There is a star.,"[1, 0]",,1,4368,,1,0,,undefined,"[2, 9, 1]",0,"[2, 3, 1]","[0, 0, 0]",2,response,alternative,
2,"[1, 0]",True,Some of the symbols are squares.,All of the symbols are notes.,"[6, 4, 3]",0,11.31845,True,1351,"[0, 0, 0]",0,,True,All of the symbols are stars.,"[1, 0]",,0,5631,,1,1,,undefined,"[8, 2, 9]",0,"[5, 3, 8]","[0, 0, 0]",0,filler,alternative,
1,"[1, 0]",True,Some of the symbols are clubs.,Some of the symbols are circles.,"[8, 9, 3]",0,11.31845,True,2071,"[0, 0, 0]",0,,True,Some of the symbols are notes.,"[1, 0]",,0,6008,,1,1,,undefined,"[7, 6, 4]",0,"[1, 2, 8]","[0, 0, 0]",0,filler,alternative,
2,"[0, 1]",True,There is a club.,There is a diamond and a square.,"[1, 0, 4]",1,11.31845,True,2639,"[0, 0, 0]",1,,True,There is a club and a diamond.,"[0, 1]",,1,6432,,1,1,,undefined,"[0, 5, 6]",1,"[1, 5, 6]","[0, 0, 0]",2,filler,alternative,
0,"[0, 1]",True,There is a square.,There is a note.,"[3, 2, 5]",1,11.31845,True,1383,"[0, 0, 0]",0,,True,There is a spade.,"[1, 0]",,1,4328,,1,0,,undefined,"[8, 3, 1]",0,"[5, 4, 7]","[0, 0, 0]",2,response,alternative,
1,"[0, 1]",True,There are four stars.,There are four stars.,"[6, 8, 1]",1,11.31845,True,1511,"[0, 0, 0]",1,,True,There are four stars.,"[0, 1]",,1,4047,,1,0,,undefined,"[6, 7, 9]",1,"[6, 8, 5]","[0, 0, 0]",1,response,alternative,
3,"[0, 1]",False,Some of the symbols are hearts.,1 + 6 = ?,"[2, 0, 2]",1,11.31845,False,2039,"[7, 0, 0]",0,,True,0 + 2 = ?,"[1, 0]",,0,5007,,1,1,,undefined,"[7, 1, 6]",0,"[4, 1, 3]","[2, 0, 0]",0,filler,alternative,
2,"[1, 0]",True,There are four squares.,There are six stars.,"[2, 5, 3]",0,11.31845,True,1351,"[0, 0, 0]",0,,True,There are six ticks.,"[1, 0]",,0,4448,,1,0,,undefined,"[6, 4, 3]",0,"[5, 8, 6]","[0, 0, 0]",1,response,alternative,
0,"[0, 1]",True,There are four diamonds.,There are four hearts.,"[3, 5, 0]",1,11.31845,True,1759,"[0, 0, 0]",1,,True,There are four spades.,"[0, 1]",,1,4600,,1,1,,undefined,"[4, 7, 9]",1,"[0, 6, 2]","[0, 0, 0]",1,filler,alternative,
1,"[1, 0]",True,Some of the symbols are hearts.,Some of the symbols are squares.,"[6, 4, 3]",0,11.31845,True,1519,"[0, 0, 0]",1,,True,Some of the symbols are stars.,"[0, 1]",,0,6207,,1,1,,undefined,"[5, 8, 3]",1,"[4, 1, 8]","[0, 0, 0]",0,filler,alternative,
3,"[0, 1]",True,There are four squares.,0 + 9 = ?,"[9, 2, 7]",1,11.31845,False,1303,"[6, 0, 0]",0,,False,2 + 7 = ?,"[0, 1]",,1,4535,,1,1,,undefined,"[9, 0, 9]",1,"[5, 8, 3]","[7, 0, 0]",1,filler,alternative,
0,"[0, 1]",True,Some of the symbols are squares.,Some of the symbols are triangles.,"[1, 6, 7]",1,11.31845,True,1375,"[0, 0, 0]",0,,True,Some of the symbols are clubs.,"[1, 0]",,1,7504,,1,1,,undefined,"[9, 8, 1]",0,"[5, 7, 4]","[0, 0, 0]",0,filler,alternative,
2,"[1, 0]",True,Some of the symbols are circles.,All of the symbols are circles.,"[8, 5, 4]",0,11.31845,True,1928,"[0, 0, 0]",1,,True,All of the symbols are notes.,"[0, 1]",,0,5240,,1,0,,undefined,"[7, 4, 1]",1,"[7, 2, 5]","[0, 0, 0]",0,response,alternative,
2,"[0, 1]",True,Some of the symbols are squares.,All of the symbols are hearts.,"[1, 0, 6]",1,11.31845,False,1743,"[0, 0, 0]",0,,False,All of the symbols are clubs.,"[0, 1]",,1,5800,,1,1,,undefined,"[4, 5, 8]",1,"[5, 2, 8]","[0, 0, 0]",0,filler,alternative,
0,"[0, 1]",True,Some of the symbols are clubs.,Some of the symbols are spades.,"[6, 7, 3]",1,11.31845,True,1415,"[0, 0, 0]",0,,True,Some of the symbols are stars.,"[1, 0]",,1,5392,,1,0,,undefined,"[3, 5, 1]",0,"[1, 5, 6]","[0, 0, 0]",0,response,alternative,
2,"[0, 1]",True,Some of the symbols are triangles.,All of the symbols are hearts.,"[3, 1, 7]",1,11.31845,True,2015,"[0, 0, 0]",0,,True,All of the symbols are spades.,"[1, 0]",,1,9512,,1,0,,undefined,"[4, 0, 7]",0,"[9, 2, 7]","[0, 0, 0]",0,response,alternative,
3,"[1, 0]",False,There is a circle.,9 + 7 = ?,"[9, 3, 6]",0,11.31845,False,2639,"[2, 0, 0]",0,,False,3 + 6 = ?,"[0, 1]",,1,5448,,1,1,,undefined,"[16, 9, 7]",1,"[7, 5, 2]","[1, 0, 0]",2,filler,alternative,
1,"[0, 1]",True,There are four notes.,There are four circles.,"[8, 3, 9]",1,11.31845,True,1991,"[0, 0, 0]",1,,True,There are four notes.,"[0, 1]",,1,5048,,1,1,,undefined,"[7, 9, 1]",1,"[8, 9, 4]","[0, 0, 0]",1,filler,alternative,
1,"[1, 0]",True,There is a club.,There is a note.,"[5, 7, 4]",0,11.31845,True,1439,"[0, 0, 0]",1,,True,There is a square.,"[0, 1]",,0,4104,,1,0,,undefined,"[8, 2, 9]",1,"[1, 4, 3]","[0, 0, 0]",2,filler,alternative,
2,"[0, 1]",True,There is a heart.,There is a diamond and a star.,"[0, 6, 2]",1,11.31845,True,1352,"[0, 0, 0]",0,,True,There is a diamond and a star.,"[1, 0]",,1,5280,,1,0,,undefined,"[0, 6, 1]",0,"[4, 0, 5]","[0, 0, 0]",2,response,alternative,
0,"[0, 1]",True,Some of the symbols are hearts.,Some of the symbols are spades.,"[5, 9, 6]",1,11.31845,True,1279,"[0, 0, 0]",1,,True,Some of the symbols are squares.,"[0, 1]",,1,8048,,1,0,,undefined,"[3, 0, 6]",1,"[4, 6, 0]","[0, 0, 0]",0,response,alternative,
3,"[1, 0]",False,Some of the symbols are notes.,6 + 3 = ?,"[10, 9, 1]",0,11.31845,False,1455,"[2, 0, 0]",0,,True,9 + 1 = ?,"[1, 0]",,1,3904,,1,0,,undefined,"[9, 6, 3]",0,"[8, 1, 5]","[6, 0, 0]",0,response,alternative,
3,"[1, 0]",False,Some of the symbols are clubs.,8 + 4 = ?,"[8, 6, 2]",0,11.31845,False,2000,"[0, 0, 0]",0,,False,6 + 2 = ?,"[0, 1]",,1,4536,,1,0,,undefined,"[12, 8, 4]",1,"[1, 7, 9]","[0, 0, 0]",0,response,alternative,
1,"[0, 1]",True,Some of the symbols are clubs.,Some of the symbols are diamonds.,"[4, 0, 5]",1,11.31845,True,2863,"[0, 0, 0]",1,,True,Some of the symbols are hearts.,"[0, 1]",,1,8112,,1,1,,undefined,"[0, 3, 4]",1,"[1, 8, 9]","[0, 0, 0]",0,filler,alternative,
1,"[1, 0]",True,There are four ticks.,There are four diamonds.,"[5, 6, 1]",0,11.31845,True,1311,"[0, 0, 0]",1,,True,There are four squares.,"[0, 1]",,0,3872,,1,0,,undefined,"[0, 8, 4]",1,"[2, 7, 1]","[0, 0, 0]",1,response,alternative,
1,"[1, 0]",True,Some of the symbols are spades.,Some of the symbols are triangles.,"[6, 4, 1]",0,11.31845,True,2159,"[0, 0, 0]",0,,True,Some of the symbols are stars.,"[1, 0]",,0,7104,,1,0,,undefined,"[9, 6, 5]",0,"[3, 7, 5]","[0, 0, 0]",0,response,alternative,
2,"[1, 0]",True,There are four squares.,There are six squares.,"[3, 9, 1]",0,11.31845,True,1879,"[0, 0, 0]",1,,True,There are six spades.,"[0, 1]",,0,5544,,1,1,,undefined,"[5, 0, 8]",1,"[5, 6, 7]","[0, 0, 0]",1,filler,alternative,
3,"[1, 0]",True,There is a circle.,1 + 6 = ?,"[14, 5, 9]",0,11.31845,True,2223,"[8, 0, 0]",1,,True,5 + 9 = ?,"[0, 1]",,0,7112,,1,0,,undefined,"[7, 1, 6]",1,"[7, 6, 3]","[9, 0, 0]",2,response,alternative,
0,"[1, 0]",True,Some of the symbols are squares.,Some of the symbols are triangles.,"[4, 3, 2]",0,11.31845,True,1439,"[0, 0, 0]",1,,True,Some of the symbols are hearts.,"[0, 1]",,0,5728,,1,0,,undefined,"[9, 1, 3]",1,"[5, 1, 9]","[0, 0, 0]",0,response,alternative,
0,"[1, 0]",True,There are four circles.,There are four hearts.,"[8, 1, 7]",0,11.31845,True,1231,"[0, 0, 0]",0,,True,There are four notes.,"[1, 0]",,0,4976,,1,0,,undefined,"[4, 2, 3]",0,"[7, 6, 9]","[0, 0, 0]",1,response,alternative,
0,"[1, 0]",True,Some of the symbols are squares.,Some of the symbols are hearts.,"[9, 3, 1]",0,11.31845,True,1351,"[0, 0, 0]",1,,True,Some of the symbols are triangles.,"[0, 1]",,0,4824,,1,0,,undefined,"[4, 7, 1]",1,"[5, 2, 7]","[0, 0, 0]",0,response,alternative,
1,"[1, 0]",True,There is a square.,There is a circle.,"[7, 6, 9]",0,11.31845,True,1519,"[0, 0, 0]",1,,True,There is a circle.,"[0, 1]",,0,4736,,1,1,,undefined,"[7, 2, 1]",1,"[5, 2, 6]","[0, 0, 0]",2,filler,alternative,
3,"[1, 0]",True,There is a club.,3 + 8 = ?,"[14, 7, 7]",0,11.31845,False,1583,"[5, 0, 0]",1,,False,7 + 7 = ?,"[1, 0]",,0,4216,,1,1,,undefined,"[11, 3, 8]",0,"[1, 7, 5]","[3, 0, 0]",2,filler,alternative,
,,,,,,,20.5621,,,,,,,,,"[0, 'Margaret']",,,1,2,,Margaret,undefined,,,,,,,,bot_check
3,"[0, 1]",True,There are four stars.,2 + 3 = ?,"[6, 4, 2]",1,20.5621,True,2909,"[7, 0, 0]",0,,True,4 + 2 = ?,"[1, 0]",,1,11796,,2,1,,undefined,"[5, 2, 3]",0,"[6, 1, 0]","[9, 0, 0]",1,filler,alternative,
3,"[1, 0]",False,Some of the symbols are stars.,2 + 8 = ?,"[9, 7, 2]",0,20.5621,False,7168,"[0, 0, 0]",0,,True,7 + 2 = ?,"[1, 0]",,1,14396,,2,1,,undefined,"[10, 2, 8]",0,"[6, 5, 8]","[7, 0, 0]",0,response,alternative,
3,"[0, 1]",True,There are four hearts.,8 + 8 = ?,"[14, 9, 5]",1,20.5621,False,3671,"[4, 0, 0]",0,,False,9 + 5 = ?,"[0, 1]",,1,10607,,2,1,,undefined,"[16, 8, 8]",1,"[4, 7, 3]","[6, 0, 0]",1,response,alternative,
2,"[1, 0]",True,There is a club.,There is a star and a spade.,"[1, 6, 0]",0,20.5621,True,3911,"[0, 0, 0]",0,,True,There is a club and a star.,"[1, 0]",,0,13457,,2,1,,undefined,"[6, 3, 2]",0,"[1, 3, 5]","[0, 0, 0]",2,filler,alternative,
0,"[1, 0]",True,There are four notes.,There are four circles.,"[5, 8, 4]",0,20.5621,True,6533,"[0, 0, 0]",0,,True,There are four squares.,"[1, 0]",,0,22209,,2,0,,undefined,"[7, 8, 4]",0,"[8, 5, 7]","[0, 0, 0]",1,response,alternative,
1,"[0, 1]",True,There is a note.,There is a note.,"[3, 0, 7]",1,20.5621,True,6164,"[0, 0, 0]",0,,True,There is a spade.,"[1, 0]",,1,13635,,2,0,,undefined,"[8, 0, 7]",0,"[8, 7, 1]","[0, 0, 0]",2,response,alternative,
2,"[1, 0]",True,Some of the symbols are spades.,All of the symbols are clubs.,"[4, 1, 0]",0,20.5621,True,5327,"[0, 0, 0]",1,,True,All of the symbols are hearts.,"[0, 1]",,0,14843,,2,1,,undefined,"[1, 9, 2]",1,"[3, 0, 1]","[0, 0, 0]",0,filler,alternative,
1,"[1, 0]",True,Some of the symbols are ticks.,Some of the symbols are spades.,"[7, 9, 5]",0,20.5621,True,5398,"[0, 0, 0]",0,,True,Some of the symbols are circles.,"[1, 0]",,0,14582,,2,1,,undefined,"[3, 2, 8]",0,"[2, 9, 5]","[0, 0, 0]",0,filler,alternative,
0,"[1, 0]",True,There are four ticks.,There are four triangles.,"[9, 0, 3]",0,20.5621,True,6159,"[0, 0, 0]",0,,True,There are four triangles.,"[1, 0]",,0,17002,,2,0,,undefined,"[9, 3, 0]",0,"[2, 4, 8]","[0, 0, 0]",1,response,alternative,
2,"[1, 0]",True,There are four spades.,There are six hearts.,"[3, 4, 5]",0,20.5621,True,3870,"[0, 0, 0]",0,,True,There are six spades.,"[1, 0]",,0,11689,,2,1,,undefined,"[4, 9, 2]",0,"[3, 5, 8]","[0, 0, 0]",1,filler,alternative,
1,"[1, 0]",True,There are four spades.,There are four clubs.,"[7, 9, 8]",0,20.5621,True,4438,"[0, 0, 0]",1,,True,There are four circles.,"[0, 1]",,0,11705,,2,1,,undefined,"[1, 4, 3]",1,"[3, 5, 0]","[0, 0, 0]",1,filler,alternative,
3,"[1, 0]",False,There are four stars.,3 + 7 = ?,"[10, 9, 1]",0,20.5621,False,2982,"[0, 0, 0]",0,,False,9 + 1 = ?,"[0, 1]",,1,9190,,2,1,,undefined,"[10, 3, 7]",1,"[6, 0, 2]","[9, 0, 0]",1,response,alternative,
0,"[1, 0]",True,Some of the symbols are notes.,Some of the symbols are spades.,"[8, 4, 7]",0,20.5621,True,10277,"[0, 0, 0]",0,,True,Some of the symbols are notes.,"[1, 0]",,0,25121,,2,1,,undefined,"[3, 7, 8]",0,"[8, 7, 0]","[0, 0, 0]",0,response,alternative,
1,"[0, 1]",True,There is a diamond.,There is a tick.,"[8, 3, 9]",1,20.5621,True,4132,"[0, 0, 0]",1,,True,There is a note.,"[0, 1]",,1,11681,,2,1,,undefined,"[2, 6, 1]",1,"[0, 6, 2]","[0, 0, 0]",2,filler,alternative,
2,"[1, 0]",True,Some of the symbols are clubs.,All of the symbols are squares.,"[5, 4, 9]",0,20.5621,True,4622,"[0, 0, 0]",0,,True,All of the symbols are squares.,"[1, 0]",,0,17008,,2,1,,undefined,"[5, 7, 4]",0,"[1, 5, 0]","[0, 0, 0]",0,filler,alternative,
0,"[1, 0]",True,There are four ticks.,There are four ticks.,"[4, 3, 2]",0,20.5621,True,3974,"[0, 0, 0]",1,,True,There are four hearts.,"[0, 1]",,0,12159,,2,1,,undefined,"[2, 5, 1]",1,"[2, 4, 9]","[0, 0, 0]",1,filler,alternative,
2,"[1, 0]",True,There is a club.,There is a diamond and a circle.,"[0, 3, 7]",0,20.5621,True,10221,"[0, 0, 0]",1,,True,There is a diamond and a spade.,"[0, 1]",,0,19953,,2,0,,undefined,"[0, 7, 5]",1,"[1, 6, 9]","[0, 0, 0]",2,response,alternative,
2,"[1, 0]",True,Some of the symbols are hearts.,All of the symbols are stars.,"[8, 9, 4]",0,20.5621,True,5365,"[0, 0, 0]",0,,True,All of the symbols are notes.,"[1, 0]",,0,12471,,2,1,,undefined,"[6, 7, 8]",0,"[4, 7, 5]","[0, 0, 0]",0,response,alternative,
3,"[1, 0]",True,There is a diamond.,7 + 4 = ?,"[7, 0, 7]",0,20.5621,True,3525,"[4, 0, 0]",1,,True,0 + 7 = ?,"[0, 1]",,0,9960,,2,1,,undefined,"[11, 7, 4]",1,"[0, 8, 5]","[1, 0, 0]",2,filler,alternative,
1,"[0, 1]",True,There is a circle.,There is a star.,"[5, 0, 7]",1,20.5621,True,3618,"[0, 0, 0]",1,,True,There is a square.,"[0, 1]",,1,11243,,2,0,,undefined,"[6, 0, 7]",1,"[7, 0, 8]","[0, 0, 0]",2,response,alternative,
3,"[0, 1]",False,There is a note.,0 + 3 = ?,"[10, 7, 3]",1,20.5621,False,4077,"[6, 0, 0]",1,,True,7 + 3 = ?,"[0, 1]",,0,13981,,2,1,,undefined,"[3, 0, 3]",1,"[8, 3, 0]","[2, 0, 0]",2,filler,alternative,
0,"[0, 1]",True,There are four stars.,There are four hearts.,"[8, 9, 5]",1,20.5621,True,4287,"[0, 0, 0]",0,,True,There are four notes.,"[1, 0]",,1,12695,,2,1,,undefined,"[4, 1, 2]",0,"[6, 0, 9]","[0, 0, 0]",1,filler,alternative,
1,"[0, 1]",True,There are four squares.,There are four circles.,"[2, 9, 3]",1,20.5621,True,20048,"[0, 0, 0]",0,,True,There are four ticks.,"[1, 0]",,1,25979,,2,0,,undefined,"[7, 2, 5]",0,"[5, 3, 8]","[0, 0, 0]",1,response,alternative,
1,"[1, 0]",True,There is a star.,There is a tick.,"[9, 3, 7]",0,20.5621,True,4094,"[0, 0, 0]",1,,True,There is a triangle.,"[0, 1]",,0,11880,,2,1,,undefined,"[2, 5, 6]",1,"[6, 1, 8]","[0, 0, 0]",2,filler,alternative,
2,"[1, 0]",True,There is a note.,There is a heart and a spade.,"[5, 4, 8]",0,20.5621,True,3036,"[0, 0, 0]",1,,True,There is a square and a heart.,"[0, 1]",,0,11144,,2,0,,undefined,"[4, 3, 7]",1,"[8, 4, 1]","[0, 0, 0]",2,response,alternative,
3,"[1, 0]",False,Some of the symbols are notes.,1 + 7 = ?,"[10, 6, 4]",0,20.5621,False,4502,"[4, 0, 0]",0,,True,6 + 4 = ?,"[1, 0]",,1,13448,,2,1,,undefined,"[8, 1, 7]",0,"[8, 4, 9]","[6, 0, 0]",0,response,alternative,
2,"[0, 1]",True,Some of the symbols are ticks.,All of the symbols are squares.,"[2, 7, 9]",1,20.5621,True,4751,"[0, 0, 0]",1,,True,All of the symbols are ticks.,"[0, 1]",,1,11929,,2,1,,undefined,"[5, 6, 4]",1,"[2, 7, 0]","[0, 0, 0]",0,response,alternative,
2,"[1, 0]",True,There are four stars.,There are six hearts.,"[2, 1, 6]",0,20.5621,True,4801,"[0, 0, 0]",1,,True,There are six ticks.,"[0, 1]",,0,11882,,2,0,,undefined,"[4, 1, 3]",1,"[6, 7, 2]","[0, 0, 0]",1,response,alternative,
3,"[0, 1]",False,Some of the symbols are triangles.,5 + 9 = ?,"[10, 2, 8]",1,20.5621,False,4095,"[8, 0, 0]",1,,True,2 + 8 = ?,"[0, 1]",,0,15490,,2,1,,undefined,"[14, 5, 9]",1,"[9, 7, 2]","[4, 0, 0]",0,filler,alternative,
2,"[0, 1]",True,There are four squares.,There are six spades.,"[8, 0, 5]",1,20.5621,True,3613,"[0, 0, 0]",0,,True,There are six notes.,"[1, 0]",,1,9687,,2,0,,undefined,"[3, 1, 5]",0,"[5, 6, 8]","[0, 0, 0]",1,response,alternative,
2,"[0, 1]",True,Some of the symbols are hearts.,All of the symbols are notes.,"[5, 9, 7]",1,20.5621,True,3244,"[0, 0, 0]",0,,True,All of the symbols are squares.,"[1, 0]",,1,10865,,2,1,,undefined,"[8, 3, 9]",0,"[4, 0, 1]","[0, 0, 0]",0,filler,alternative,
0,"[0, 1]",True,Some of the symbols are squares.,Some of the symbols are clubs.,"[4, 1, 2]",1,20.5621,True,4981,"[0, 0, 0]",0,,True,Some of the symbols are hearts.,"[1, 0]",,1,17159,,2,1,,undefined,"[1, 0, 9]",0,"[5, 7, 4]","[0, 0, 0]",0,response,alternative,
0,"[1, 0]",True,Some of the symbols are spades.,Some of the symbols are circles.,"[6, 2, 3]",0,20.5621,True,3580,"[0, 0, 0]",0,,True,Some of the symbols are stars.,"[1, 0]",,0,11244,,2,1,,undefined,"[7, 3, 5]",0,"[3, 5, 2]","[0, 0, 0]",0,filler,alternative,
2,"[1, 0]",True,There are four stars.,There are six triangles.,"[0, 4, 6]",0,20.5621,True,4662,"[0, 0, 0]",1,,True,There are six diamonds.,"[0, 1]",,0,15689,,2,1,,undefined,"[9, 4, 6]",1,"[6, 4, 1]","[0, 0, 0]",1,filler,alternative,
3,"[1, 0]",True,Some of the symbols are circles.,3 + 6 = ?,"[11, 9, 2]",0,20.5621,True,4070,"[7, 0, 0]",1,,True,9 + 2 = ?,"[0, 1]",,0,9056,,2,1,,undefined,"[9, 3, 6]",1,"[7, 0, 5]","[8, 0, 0]",0,response,alternative,
1,"[1, 0]",True,There are four circles.,There are four circles.,"[1, 8, 4]",0,20.5621,True,2590,"[0, 0, 0]",0,,True,There are four clubs.,"[1, 0]",,0,10032,,2,1,,undefined,"[7, 3, 1]",0,"[7, 6, 8]","[0, 0, 0]",1,filler,alternative,
0,"[0, 1]",True,Some of the symbols are spades.,Some of the symbols are spades.,"[3, 5, 1]",1,20.5621,True,4557,"[0, 0, 0]",0,,True,Some of the symbols are spades.,"[1, 0]",,1,12126,,2,1,,undefined,"[3, 8, 7]",0,"[3, 7, 9]","[0, 0, 0]",0,response,alternative,
2,"[1, 0]",True,There are four squares.,There are six squares.,"[5, 1, 7]",0,20.5621,True,3754,"[0, 0, 0]",1,,True,There are six squares.,"[0, 1]",,0,11220,,2,1,,undefined,"[5, 7, 9]",1,"[5, 9, 8]","[0, 0, 0]",1,response,alternative,
1,"[1, 0]",True,There is a square.,There is a note.,"[7, 5, 8]",0,20.5621,True,3223,"[0, 0, 0]",1,,True,There is a circle.,"[0, 1]",,0,8424,,2,1,,undefined,"[8, 5, 7]",1,"[5, 6, 4]","[0, 0, 0]",2,filler,alternative,
3,"[0, 1]",False,There are four squares.,5 + 6 = ?,"[8, 7, 1]",1,20.5621,False,2480,"[6, 0, 0]",1,,False,7 + 1 = ?,"[1, 0]",,0,7056,,2,1,,undefined,"[11, 5, 6]",0,"[5, 0, 7]","[0, 0, 0]",1,filler,alternative,
3,"[0, 1]",False,There is a diamond.,4 + 3 = ?,"[15, 7, 8]",1,20.5621,False,4503,"[0, 0, 0]",1,,True,7 + 8 = ?,"[0, 1]",,0,10048,,2,0,,undefined,"[7, 4, 3]",1,"[0, 6, 9]","[1, 0, 0]",2,response,alternative,
3,"[0, 1]",True,There is a diamond.,6 + 4 = ?,"[5, 4, 1]",1,20.5621,False,7750,"[3, 0, 0]",0,,False,4 + 1 = ?,"[0, 1]",,1,14640,,2,0,,undefined,"[10, 6, 4]",1,"[0, 7, 3]","[7, 0, 0]",2,response,alternative,
3,"[0, 1]",False,There is a triangle.,7 + 0 = ?,"[6, 5, 1]",1,20.5621,False,7422,"[9, 0, 0]",1,,False,5 + 1 = ?,"[1, 0]",,0,12303,,2,0,,undefined,"[7, 7, 0]",0,"[9, 4, 6]","[7, 0, 0]",2,response,alternative,
0,"[0, 1]",True,Some of the symbols are ticks.,Some of the symbols are hearts.,"[9, 8, 2]",1,20.5621,True,3612,"[0, 0, 0]",0,,True,Some of the symbols are triangles.,"[1, 0]",,1,10267,,2,1,,undefined,"[4, 7, 3]",0,"[2, 4, 7]","[0, 0, 0]",0,filler,alternative,
3,"[0, 1]",False,There are four circles.,8 + 9 = ?,"[6, 0, 6]",1,20.5621,False,3269,"[2, 0, 0]",1,,True,0 + 6 = ?,"[0, 1]",,0,9152,,2,1,,undefined,"[17, 8, 9]",1,"[7, 1, 8]","[3, 0, 0]",1,response,alternative,
0,"[1, 0]",True,There is a triangle.,There is a spade.,"[6, 1, 0]",0,20.5621,True,3035,"[0, 0, 0]",1,,True,There is a star.,"[0, 1]",,0,10216,,2,1,,undefined,"[3, 4, 2]",1,"[9, 0, 8]","[0, 0, 0]",2,filler,alternative,
3,"[0, 1]",True,Some of the symbols are ticks.,6 + 1 = ?,"[9, 0, 9]",1,20.5621,False,5021,"[6, 0, 0]",0,,False,0 + 9 = ?,"[0, 1]",,1,10457,,2,1,,undefined,"[7, 6, 1]",1,"[2, 8, 9]","[4, 0, 0]",0,response,alternative,
2,"[0, 1]",True,Some of the symbols are circles.,All of the symbols are spades.,"[3, 4, 2]",1,20.5621,True,3763,"[0, 0, 0]",0,,True,All of the symbols are spades.,"[1, 0]",,1,10649,,2,1,,undefined,"[3, 8, 7]",0,"[7, 6, 9]","[0, 0, 0]",0,response,alternative,
1,"[0, 1]",True,Some of the symbols are circles.,Some of the symbols are clubs.,"[8, 2, 0]",1,20.5621,True,2912,"[0, 0, 0]",1,,True,Some of the symbols are notes.,"[0, 1]",,1,12337,,2,1,,undefined,"[1, 2, 5]",1,"[7, 1, 9]","[0, 0, 0]",0,filler,alternative,
1,"[0, 1]",True,Some of the symbols are hearts.,Some of the symbols are stars.,"[1, 6, 4]",1,20.5621,True,3694,"[0, 0, 0]",1,,True,Some of the symbols are clubs.,"[0, 1]",,1,9721,,2,1,,undefined,"[6, 5, 2]",1,"[4, 2, 9]","[0, 0, 0]",0,response,alternative,
3,"[0, 1]",False,Some of the symbols are stars.,9 + 3 = ?,"[3, 2, 1]",1,20.5621,False,3863,"[1, 0, 0]",0,,True,2 + 1 = ?,"[1, 0]",,0,11386,,2,1,,undefined,"[12, 9, 3]",0,"[6, 2, 9]","[2, 0, 0]",0,filler,alternative,
2,"[0, 1]",True,Some of the symbols are stars.,All of the symbols are circles.,"[3, 5, 4]",1,20.5621,True,3437,"[0, 0, 0]",1,,True,All of the symbols are spades.,"[0, 1]",,1,8846,,2,1,,undefined,"[7, 3, 6]",1,"[6, 8, 2]","[0, 0, 0]",0,filler,alternative,
0,"[0, 1]",True,There is a heart.,There is a diamond.,"[1, 7, 0]",1,20.5621,True,2461,"[0, 0, 0]",0,,True,There is a club.,"[1, 0]",,1,8033,,2,1,,undefined,"[0, 3, 8]",0,"[4, 8, 5]","[0, 0, 0]",2,filler,alternative,
0,"[0, 1]",True,There are four clubs.,There are four ticks.,"[4, 7, 1]",1,20.5621,True,2839,"[0, 0, 0]",0,,True,There are four hearts.,"[1, 0]",,1,8336,,2,1,,undefined,"[2, 4, 1]",0,"[1, 9, 5]","[0, 0, 0]",1,filler,alternative,
3,"[0, 1]",True,Some of the symbols are stars.,6 + 9 = ?,"[6, 3, 3]",1,20.5621,False,2854,"[7, 0, 0]",0,,False,3 + 3 = ?,"[0, 1]",,1,8688,,2,1,,undefined,"[15, 6, 9]",1,"[6, 9, 5]","[5, 0, 0]",0,filler,alternative,
2,"[1, 0]",True,There is a circle.,There is a star and a circle.,"[7, 2, 0]",0,20.5621,True,2469,"[0, 0, 0]",0,,True,There is a circle and a tick.,"[1, 0]",,0,9271,,2,1,,undefined,"[6, 7, 2]",0,"[7, 8, 1]","[0, 0, 0]",2,filler,alternative,
0,"[1, 0]",True,There is a star.,There is a heart.,"[4, 0, 1]",0,20.5621,True,2838,"[0, 0, 0]",1,,True,There is a heart.,"[0, 1]",,0,8452,,2,1,,undefined,"[4, 3, 1]",1,"[6, 9, 8]","[0, 0, 0]",2,filler,alternative,
1,"[1, 0]",True,There is a spade.,There is a triangle.,"[6, 4, 1]",0,20.5621,True,2119,"[0, 0, 0]",0,,True,There is a star.,"[1, 0]",,0,7120,,2,1,,undefined,"[9, 3, 6]",0,"[3, 7, 5]","[0, 0, 0]",2,filler,alternative,
2,"[1, 0]",True,There is a note.,There is a circle and a triangle.,"[2, 4, 3]",0,20.5621,True,2402,"[0, 0, 0]",0,,True,There is a tick and a heart.,"[1, 0]",,0,7574,,2,1,,undefined,"[7, 9, 0]",0,"[8, 6, 2]","[0, 0, 0]",2,filler,alternative,
0,"[1, 0]",True,Some of the symbols are triangles.,Some of the symbols are stars.,"[7, 9, 5]",0,20.5621,True,2606,"[0, 0, 0]",0,,True,Some of the symbols are circles.,"[1, 0]",,0,9881,,2,1,,undefined,"[6, 9, 3]",0,"[9, 5, 8]","[0, 0, 0]",0,filler,alternative,
0,"[1, 0]",True,There are four diamonds.,There are four hearts.,"[4, 7, 1]",0,20.5621,True,3326,"[0, 0, 0]",1,,True,There are four hearts.,"[0, 1]",,0,8520,,2,1,,undefined,"[4, 3, 2]",1,"[0, 6, 3]","[0, 0, 0]",1,response,alternative,
0,"[1, 0]",True,There is a triangle.,There is a triangle.,"[1, 4, 7]",0,20.5621,True,8151,"[0, 0, 0]",1,,True,There is a club.,"[0, 1]",,0,14679,,2,1,,undefined,"[9, 7, 3]",1,"[9, 5, 8]","[0, 0, 0]",2,response,alternative,
0,"[1, 0]",True,There is a triangle.,There is a star.,"[4, 5, 9]",0,20.5621,True,3287,"[0, 0, 0]",0,,True,There is a heart.,"[1, 0]",,0,8360,,2,1,,undefined,"[6, 2, 3]",0,"[9, 5, 4]","[0, 0, 0]",2,response,alternative,
2,"[0, 1]",True,There is a circle.,There is a tick and a star.,"[3, 9, 7]",1,20.5621,True,3119,"[0, 0, 0]",1,,True,There is a spade and a triangle.,"[0, 1]",,1,9608,,2,1,,undefined,"[2, 6, 7]",1,"[7, 3, 8]","[0, 0, 0]",2,response,alternative,
3,"[1, 0]",False,There is a spade.,4 + 3 = ?,"[7, 2, 5]",0,20.5621,False,3046,"[2, 0, 0]",0,,True,2 + 5 = ?,"[1, 0]",,1,7232,,2,1,,undefined,"[7, 4, 3]",0,"[3, 4, 5]","[3, 0, 0]",2,filler,alternative,
0,"[1, 0]",True,Some of the symbols are clubs.,Some of the symbols are hearts.,"[0, 9, 1]",0,20.5621,True,2166,"[0, 0, 0]",0,,True,Some of the symbols are diamonds.,"[1, 0]",,0,9104,,2,1,,undefined,"[4, 7, 8]",0,"[1, 8, 6]","[0, 0, 0]",0,filler,alternative,
1,"[1, 0]",True,Some of the symbols are hearts.,Some of the symbols are ticks.,"[0, 5, 9]",0,20.5621,True,3085,"[0, 0, 0]",1,,True,Some of the symbols are diamonds.,"[0, 1]",,0,9487,,2,1,,undefined,"[2, 9, 4]",1,"[4, 9, 3]","[0, 0, 0]",0,filler,alternative,
1,"[1, 0]",True,There are four squares.,There are four notes.,"[3, 0, 7]",0,20.5621,True,2342,"[0, 0, 0]",1,,True,There are four spades.,"[0, 1]",,0,8281,,2,1,,undefined,"[8, 6, 3]",1,"[5, 0, 7]","[0, 0, 0]",1,response,alternative,
1,"[0, 1]",True,There are four triangles.,There are four circles.,"[2, 6, 4]",1,20.5621,True,2358,"[0, 0, 0]",1,,True,There are four ticks.,"[0, 1]",,1,6760,,2,1,,undefined,"[7, 6, 5]",1,"[9, 7, 2]","[0, 0, 0]",1,response,alternative,
1,"[1, 0]",True,Some of the symbols are stars.,Some of the symbols are notes.,"[2, 5, 1]",0,20.5621,True,3251,"[0, 0, 0]",0,,True,Some of the symbols are ticks.,"[1, 0]",,0,8717,,2,1,,undefined,"[8, 5, 0]",0,"[6, 5, 3]","[0, 0, 0]",0,response,alternative,
2,"[0, 1]",True,There are four ticks.,There are six notes.,"[5, 0, 4]",1,20.5621,True,2654,"[0, 0, 0]",1,,True,There are six squares.,"[0, 1]",,1,7327,,2,1,,undefined,"[8, 4, 3]",1,"[2, 5, 1]","[0, 0, 0]",1,filler,alternative,
0,"[1, 0]",True,There are four circles.,There are four clubs.,"[7, 2, 4]",0,20.5621,True,3150,"[0, 0, 0]",1,,True,There are four circles.,"[0, 1]",,0,8097,,2,1,,undefined,"[1, 2, 8]",1,"[7, 8, 0]","[0, 0, 0]",1,response,alternative,
2,"[1, 0]",True,There are four hearts.,There are six squares.,"[7, 6, 1]",0,20.5621,True,2550,"[0, 0, 0]",0,,True,There are six circles.,"[1, 0]",,0,7119,,2,1,,undefined,"[5, 8, 7]",0,"[4, 6, 0]","[0, 0, 0]",1,response,alternative,
3,"[1, 0]",True,There is a spade.,4 + 4 = ?,"[10, 7, 3]",0,20.5621,True,2582,"[4, 0, 0]",1,,True,7 + 3 = ?,"[0, 1]",,0,6600,,2,1,,undefined,"[8, 4, 4]",1,"[3, 6, 9]","[0, 0, 0]",2,response,alternative,
2,"[1, 0]",True,Some of the symbols are triangles.,All of the symbols are hearts.,"[5, 0, 4]",0,20.5621,True,3320,"[0, 0, 0]",0,,True,All of the symbols are squares.,"[1, 0]",,0,8307,,2,1,,undefined,"[4, 9, 8]",0,"[9, 8, 3]","[0, 0, 0]",0,response,alternative,
1,"[1, 0]",True,There are four hearts.,There are four triangles.,"[7, 2, 8]",0,20.5621,True,2167,"[0, 0, 0]",1,,True,There are four circles.,"[0, 1]",,0,7006,,2,1,,undefined,"[9, 7, 4]",1,"[4, 9, 7]","[0, 0, 0]",1,response,alternative,
1,"[0, 1]",True,Some of the symbols are stars.,Some of the symbols are circles.,"[5, 8, 0]",1,20.5621,True,2327,"[0, 0, 0]",0,,True,Some of the symbols are squares.,"[1, 0]",,1,7777,,2,1,,undefined,"[7, 3, 5]",0,"[6, 5, 8]","[0, 0, 0]",0,response,alternative,
0,"[1, 0]",True,There are four spades.,There are four hearts.,"[7, 3, 4]",0,20.5621,True,2878,"[0, 0, 0]",1,,True,There are four circles.,"[0, 1]",,0,16404,,2,1,,undefined,"[4, 5, 2]",1,"[3, 7, 5]","[0, 0, 0]",1,filler,alternative,
1,"[0, 1]",True,There are four diamonds.,There are four notes.,"[7, 5, 6]",1,20.5621,True,2541,"[0, 0, 0]",1,,True,There are four circles.,"[0, 1]",,1,6848,,2,1,,undefined,"[8, 6, 0]",1,"[0, 2, 8]","[0, 0, 0]",1,filler,alternative,
3,"[0, 1]",True,There are four spades.,0 + 2 = ?,"[0, 0, 0]",1,20.5621,True,3064,"[2, 0, 0]",1,,True,0 + 0 = ?,"[0, 1]",,1,11193,,2,1,,undefined,"[2, 0, 2]",1,"[3, 7, 8]","[1, 0, 0]",1,filler,alternative,
3,"[0, 1]",False,There is a club.,9 + 0 = ?,"[2, 0, 2]",1,20.5621,False,2621,"[3, 0, 0]",1,,True,0 + 2 = ?,"[0, 1]",,0,7581,,2,1,,undefined,"[9, 9, 0]",1,"[1, 8, 9]","[5, 0, 0]",2,filler,alternative,
2,"[1, 0]",True,There is a tick.,There is a star and a note.,"[0, 9, 3]",0,20.5621,True,2237,"[0, 0, 0]",1,,True,There is a diamond and a triangle.,"[0, 1]",,0,8209,,2,1,,undefined,"[6, 8, 7]",1,"[2, 9, 6]","[0, 0, 0]",2,filler,alternative,
2,"[0, 1]",True,There are four clubs.,There are six diamonds.,"[3, 2, 8]",1,20.5621,True,2652,"[0, 0, 0]",0,,True,There are six spades.,"[1, 0]",,1,9641,,2,1,,undefined,"[0, 2, 9]",0,"[1, 3, 0]","[0, 0, 0]",1,filler,alternative,
1,"[0, 1]",True,There is a diamond.,There is a tick.,"[5, 6, 2]",1,20.5621,True,2478,"[0, 0, 0]",1,,True,There is a square.,"[0, 1]",,1,6536,,2,1,,undefined,"[2, 7, 6]",1,"[0, 9, 6]","[0, 0, 0]",2,response,alternative,
0,"[0, 1]",True,There is a tick.,There is a heart.,"[0, 7, 4]",1,20.5621,True,2670,"[0, 0, 0]",0,,True,There is a diamond.,"[1, 0]",,1,7016,,2,1,,undefined,"[4, 8, 3]",0,"[2, 6, 8]","[0, 0, 0]",2,response,alternative,
3,"[0, 1]",True,There are four circles.,3 + 7 = ?,"[9, 5, 4]",1,20.5621,True,2208,"[8, 0, 0]",0,,True,5 + 4 = ?,"[1, 0]",,1,6144,,2,1,,undefined,"[10, 3, 7]",0,"[7, 2, 4]","[8, 0, 0]",1,filler,alternative,
3,"[0, 1]",False,There are four notes.,8 + 6 = ?,"[11, 5, 6]",1,20.5621,False,2350,"[3, 0, 0]",1,,False,5 + 6 = ?,"[1, 0]",,0,6359,,2,1,,undefined,"[14, 8, 6]",0,"[8, 7, 3]","[5, 0, 0]",1,response,alternative,
2,"[1, 0]",True,There is a tick.,There is a circle and a triangle.,"[9, 4, 8]",0,20.5621,True,2222,"[0, 0, 0]",0,,True,There is a triangle and a heart.,"[1, 0]",,0,7625,,2,1,,undefined,"[7, 9, 2]",0,"[2, 9, 3]","[0, 0, 0]",2,response,alternative,
0,"[0, 1]",True,Some of the symbols are diamonds.,Some of the symbols are squares.,"[3, 5, 9]",1,20.5621,True,2918,"[0, 0, 0]",1,,True,Some of the symbols are spades.,"[0, 1]",,1,8431,,2,1,,undefined,"[5, 8, 0]",1,"[0, 8, 9]","[0, 0, 0]",0,response,alternative,
1,"[1, 0]",True,Some of the symbols are notes.,Some of the symbols are circles.,"[6, 9, 8]",0,20.5621,True,2774,"[0, 0, 0]",0,,True,Some of the symbols are stars.,"[1, 0]",,0,8472,,2,1,,undefined,"[7, 0, 1]",0,"[8, 0, 9]","[0, 0, 0]",0,response,alternative,
1,"[0, 1]",True,Some of the symbols are squares.,Some of the symbols are spades.,"[2, 1, 3]",1,20.5621,True,2419,"[0, 0, 0]",0,,True,Some of the symbols are ticks.,"[1, 0]",,1,7225,,2,1,,undefined,"[3, 8, 4]",0,"[5, 9, 3]","[0, 0, 0]",0,filler,alternative,
3,"[0, 1]",False,Some of the symbols are squares.,3 + 7 = ?,"[8, 1, 7]",1,20.5621,False,3500,"[5, 0, 0]",1,,False,1 + 7 = ?,"[1, 0]",,0,7991,,2,1,,undefined,"[10, 3, 7]",0,"[5, 4, 2]","[5, 0, 0]",0,filler,alternative,
0,"[0, 1]",True,There is a circle.,There is a note.,"[8, 5, 4]",1,20.5621,True,2537,"[0, 0, 0]",1,,True,There is a note.,"[0, 1]",,1,7470,,2,1,,undefined,"[8, 5, 6]",1,"[7, 5, 4]","[0, 0, 0]",2,filler,alternative,
1,"[0, 1]",True,There are four spades.,There are four notes.,"[7, 5, 2]",1,20.5621,True,2214,"[0, 0, 0]",1,,True,There are four circles.,"[0, 1]",,1,6744,,2,1,,undefined,"[8, 1, 5]",1,"[3, 6, 2]","[0, 0, 0]",1,filler,alternative,
1,"[0, 1]",True,There is a spade.,There is a spade.,"[4, 8, 9]",1,20.5621,True,2780,"[0, 0, 0]",0,,True,There is a heart.,"[1, 0]",,1,7055,,2,1,,undefined,"[3, 4, 6]",0,"[3, 7, 0]","[0, 0, 0]",2,response,alternative,
0,"[0, 1]",True,There is a triangle.,There is a note.,"[7, 1, 4]",1,20.5621,True,2268,"[0, 0, 0]",0,,True,There is a circle.,"[1, 0]",,1,7104,,2,1,,undefined,"[8, 6, 2]",0,"[9, 8, 6]","[0, 0, 0]",2,response,alternative,
,,,,,,,17.798283333333334,,,,,,,,,"[0, 'Elizabeth']",,,1,3,,Elizabeth,undefined,,,,,,,,bot_check
1,"[0, 1]",True,There are four hearts.,There are four diamonds.,"[6, 0, 1]",1,17.798283333333334,True,4527,"[0, 0, 0]",0,,True,There are four stars.,"[1, 0]",,1,15722,,3,1,,undefined,"[0, 2, 1]",0,"[4, 2, 3]","[0, 0, 0]",1,filler,alternative,
2,"[1, 0]",True,There are four clubs.,There are six notes.,"[0, 3, 7]",0,17.798283333333334,True,3628,"[0, 0, 0]",1,,True,There are six diamonds.,"[0, 1]",,0,11115,,3,1,,undefined,"[8, 0, 6]",1,"[1, 2, 3]","[0, 0, 0]",1,filler,alternative,
3,"[0, 1]",True,Some of the symbols are ticks.,3 + 0 = ?,"[5, 5, 0]",1,17.798283333333334,False,6482,"[3, 0, 0]",1,,False,5 + 0 = ?,"[1, 0]",,1,19263,,3,1,,undefined,"[3, 3, 0]",0,"[2, 1, 5]","[9, 0, 0]",0,filler,alternative,
3,"[0, 1]",False,There are four clubs.,6 + 3 = ?,"[14, 5, 9]",1,17.798283333333334,False,3435,"[4, 0, 0]",1,,False,5 + 9 = ?,"[1, 0]",,0,12414,,3,1,,undefined,"[9, 6, 3]",0,"[1, 8, 9]","[5, 0, 0]",1,response,alternative,
3,"[0, 1]",False,Some of the symbols are ticks.,8 + 8 = ?,"[11, 5, 6]",1,17.798283333333334,False,3254,"[1, 0, 0]",1,,True,5 + 6 = ?,"[0, 1]",,0,11810,,3,1,,undefined,"[16, 8, 8]",1,"[2, 1, 6]","[6, 0, 0]",0,filler,alternative,
1,"[0, 1]",True,There are four squares.,There are four hearts.,"[4, 5, 7]",1,17.798283333333334,True,3040,"[0, 0, 0]",0,,True,There are four hearts.,"[1, 0]",,1,8924,,3,1,,undefined,"[4, 2, 0]",0,"[5, 0, 3]","[0, 0, 0]",1,filler,alternative,
1,"[0, 1]",True,There are four squares.,There are four spades.,"[7, 3, 5]",1,17.798283333333334,True,2839,"[0, 0, 0]",1,,True,There are four circles.,"[0, 1]",,1,9018,,3,1,,undefined,"[3, 9, 1]",1,"[5, 3, 6]","[0, 0, 0]",1,filler,alternative,
0,"[1, 0]",True,Some of the symbols are stars.,Some of the symbols are ticks.,"[1, 3, 4]",0,17.798283333333334,True,3103,"[0, 0, 0]",0,,True,Some of the symbols are clubs.,"[1, 0]",,0,13313,,3,1,,undefined,"[2, 4, 9]",0,"[6, 7, 5]","[0, 0, 0]",0,filler,alternative,
3,"[0, 1]",True,There is a circle.,5 + 3 = ?,"[10, 6, 4]",1,17.798283333333334,True,3597,"[2, 0, 0]",0,,True,6 + 4 = ?,"[1, 0]",,1,9927,,3,1,,undefined,"[8, 5, 3]",0,"[7, 3, 6]","[3, 0, 0]",2,filler,alternative,
0,"[0, 1]",True,There are four squares.,There are four stars.,"[4, 8, 2]",1,17.798283333333334,True,3851,"[0, 0, 0]",1,,True,There are four hearts.,"[0, 1]",,1,18712,,3,1,,undefined,"[6, 9, 0]",1,"[5, 0, 3]","[0, 0, 0]",1,filler,alternative,
0,"[0, 1]",True,There is a spade.,There is a triangle.,"[7, 4, 8]",1,17.798283333333334,True,4212,"[0, 0, 0]",0,,True,There is a circle.,"[1, 0]",,1,13100,,3,0,,undefined,"[9, 0, 3]",0,"[3, 0, 2]","[0, 0, 0]",2,response,alternative,
3,"[0, 1]",False,Some of the symbols are diamonds.,8 + 5 = ?,"[8, 7, 1]",1,17.798283333333334,False,4716,"[1, 0, 0]",1,,True,7 + 1 = ?,"[0, 1]",,0,11628,,3,0,,undefined,"[13, 8, 5]",1,"[0, 2, 3]","[2, 0, 0]",0,response,alternative,
3,"[0, 1]",True,Some of the symbols are squares.,0 + 7 = ?,"[14, 7, 7]",1,17.798283333333334,True,3906,"[8, 0, 0]",0,,True,7 + 7 = ?,"[1, 0]",,1,9405,,3,0,,undefined,"[7, 0, 7]",0,"[5, 3, 6]","[3, 0, 0]",0,response,alternative,
0,"[1, 0]",True,There are four notes.,There are four ticks.,"[1, 4, 5]",0,17.798283333333334,True,7029,"[0, 0, 0]",0,,True,There are four clubs.,"[1, 0]",,0,13604,,3,1,,undefined,"[2, 9, 6]",0,"[8, 7, 2]","[0, 0, 0]",1,filler,alternative,
1,"[1, 0]",True,There is a circle.,There is a club.,"[9, 8, 7]",0,17.798283333333334,True,4003,"[0, 0, 0]",0,,True,There is a triangle.,"[1, 0]",,0,12443,,3,0,,undefined,"[1, 5, 3]",0,"[7, 4, 0]","[0, 0, 0]",2,response,alternative,
1,"[1, 0]",True,There is a circle.,There is a circle.,"[3, 8, 2]",0,17.798283333333334,True,3306,"[0, 0, 0]",0,,True,There is a spade.,"[1, 0]",,0,9698,,3,1,,undefined,"[7, 4, 3]",0,"[7, 8, 6]","[0, 0, 0]",2,filler,alternative,
3,"[1, 0]",True,There are four diamonds.,2 + 7 = ?,"[2, 1, 1]",0,17.798283333333334,True,2705,"[7, 0, 0]",1,,True,1 + 1 = ?,"[0, 1]",,0,7620,,3,1,,undefined,"[9, 2, 7]",1,"[0, 8, 5]","[4, 0, 0]",1,filler,alternative,
0,"[1, 0]",True,There is a tick.,There is a note.,"[1, 5, 7]",0,17.798283333333334,True,2813,"[0, 0, 0]",1,,True,There is a club.,"[0, 1]",,0,7997,,3,1,,undefined,"[8, 7, 0]",1,"[2, 7, 0]","[0, 0, 0]",2,filler,alternative,
0,"[0, 1]",True,There is a circle.,There is a tick.,"[0, 3, 1]",1,17.798283333333334,True,2609,"[0, 0, 0]",1,,True,There is a diamond.,"[0, 1]",,1,9845,,3,1,,undefined,"[2, 7, 5]",1,"[7, 8, 2]","[0, 0, 0]",2,filler,alternative,
3,"[0, 1]",False,There are four squares.,0 + 1 = ?,"[16, 8, 8]",1,17.798283333333334,False,2373,"[5, 0, 0]",1,,False,8 + 8 = ?,"[1, 0]",,0,6865,,3,1,,undefined,"[1, 0, 1]",0,"[5, 4, 0]","[8, 0, 0]",1,filler,alternative,
0,"[0, 1]",True,Some of the symbols are notes.,Some of the symbols are spades.,"[4, 7, 2]",1,17.798283333333334,True,3323,"[0, 0, 0]",1,,True,Some of the symbols are hearts.,"[0, 1]",,1,11314,,3,0,,undefined,"[3, 1, 5]",1,"[8, 4, 7]","[0, 0, 0]",0,response,alternative,
2,"[1, 0]",True,There are four diamonds.,There are six circles.,"[3, 1, 7]",0,17.798283333333334,True,2834,"[0, 0, 0]",1,,True,There are six spades.,"[0, 1]",,0,8359,,3,0,,undefined,"[7, 6, 8]",1,"[0, 3, 1]","[0, 0, 0]",1,response,alternative,
1,"[0, 1]",True,There are four triangles.,There are four squares.,"[7, 3, 8]",1,17.798283333333334,True,2877,"[0, 0, 0]",1,,True,There are four circles.,"[0, 1]",,1,9904,,3,1,,undefined,"[5, 3, 6]",1,"[9, 8, 4]","[0, 0, 0]",1,filler,alternative,
1,"[0, 1]",True,There is a note.,There is a note.,"[9, 1, 2]",1,17.798283333333334,True,3713,"[0, 0, 0]",1,,True,There is a triangle.,"[0, 1]",,1,9924,,3,0,,undefined,"[8, 4, 3]",1,"[8, 9, 5]","[0, 0, 0]",2,response,alternative,
3,"[0, 1]",True,There is a spade.,7 + 5 = ?,"[7, 7, 0]",1,17.798283333333334,False,3396,"[7, 0, 0]",0,,False,7 + 0 = ?,"[0, 1]",,1,8364,,3,0,,undefined,"[12, 7, 5]",1,"[3, 6, 0]","[5, 0, 0]",2,response,alternative,
1,"[0, 1]",True,Some of the symbols are triangles.,Some of the symbols are squares.,"[5, 8, 1]",1,17.798283333333334,True,3958,"[0, 0, 0]",0,,True,Some of the symbols are squares.,"[1, 0]",,1,11106,,3,1,,undefined,"[5, 7, 1]",0,"[9, 0, 1]","[0, 0, 0]",0,filler,alternative,
2,"[0, 1]",True,There is a triangle.,There is a circle and a diamond.,"[1, 0, 4]",1,17.798283333333334,True,3431,"[0, 0, 0]",0,,True,There is a club and a diamond.,"[1, 0]",,1,10411,,3,1,,undefined,"[7, 0, 2]",0,"[9, 7, 6]","[0, 0, 0]",2,filler,alternative,
2,"[1, 0]",True,Some of the symbols are circles.,All of the symbols are clubs.,"[3, 4, 1]",0,17.798283333333334,True,2608,"[0, 0, 0]",0,,True,All of the symbols are spades.,"[1, 0]",,0,9676,,3,1,,undefined,"[1, 9, 0]",0,"[7, 8, 6]","[0, 0, 0]",0,filler,alternative,
2,"[0, 1]",True,There are four ticks.,There are six circles.,"[8, 0, 6]",1,17.798283333333334,True,2982,"[0, 0, 0]",0,,True,There are six notes.,"[1, 0]",,1,8135,,3,0,,undefined,"[7, 6, 3]",0,"[2, 4, 7]","[0, 0, 0]",1,response,alternative,
0,"[0, 1]",True,There are four ticks.,There are four hearts.,"[5, 7, 0]",1,17.798283333333334,True,2280,"[0, 0, 0]",1,,True,There are four squares.,"[0, 1]",,1,8729,,3,0,,undefined,"[4, 0, 5]",1,"[2, 7, 0]","[0, 0, 0]",1,response,alternative,
1,"[0, 1]",True,Some of the symbols are clubs.,Some of the symbols are spades.,"[7, 1, 5]",1,17.798283333333334,True,3281,"[0, 0, 0]",1,,True,Some of the symbols are circles.,"[0, 1]",,1,11434,,3,0,,undefined,"[3, 5, 0]",1,"[1, 9, 6]","[0, 0, 0]",0,response,alternative,
1,"[0, 1]",True,There are four spades.,There are four hearts.,"[4, 3, 2]",1,17.798283333333334,True,2806,"[0, 0, 0]",0,,True,There are four hearts.,"[1, 0]",,1,8739,,3,0,,undefined,"[4, 0, 3]",0,"[3, 7, 0]","[0, 0, 0]",1,response,alternative,
2,"[1, 0]",True,There is a club.,There is a note and a triangle.,"[4, 3, 7]",0,17.798283333333334,True,3396,"[0, 0, 0]",0,,True,There is a heart and a spade.,"[1, 0]",,0,9621,,3,0,,undefined,"[8, 9, 2]",0,"[1, 3, 7]","[0, 0, 0]",2,response,alternative,
1,"[1, 0]",True,Some of the symbols are circles.,Some of the symbols are diamonds.,"[0, 2, 8]",0,17.798283333333334,True,3457,"[0, 0, 0]",0,,True,Some of the symbols are diamonds.,"[1, 0]",,0,9531,,3,1,,undefined,"[0, 3, 4]",0,"[7, 0, 2]","[0, 0, 0]",0,filler,alternative,
0,"[0, 1]",True,There is a heart.,There is a diamond.,"[2, 5, 4]",1,17.798283333333334,True,3105,"[0, 0, 0]",1,,True,There is a tick.,"[0, 1]",,1,8531,,3,1,,undefined,"[0, 5, 7]",1,"[4, 1, 5]","[0, 0, 0]",2,filler,alternative,
0,"[1, 0]",True,Some of the symbols are spades.,Some of the symbols are clubs.,"[8, 0, 4]",0,17.798283333333334,True,2877,"[0, 0, 0]",0,,True,Some of the symbols are notes.,"[1, 0]",,0,9421,,3,1,,undefined,"[1, 9, 0]",0,"[3, 5, 7]","[0, 0, 0]",0,filler,alternative,
0,"[0, 1]",True,Some of the symbols are squares.,Some of the symbols are spades.,"[1, 4, 8]",1,17.798283333333334,True,2567,"[0, 0, 0]",1,,True,Some of the symbols are clubs.,"[0, 1]",,1,8049,,3,1,,undefined,"[3, 1, 9]",1,"[5, 3, 1]","[0, 0, 0]",0,filler,alternative,
1,"[1, 0]",True,There is a triangle.,There is a triangle.,"[6, 2, 5]",0,17.798283333333334,True,2452,"[0, 0, 0]",1,,True,There is a star.,"[0, 1]",,0,7498,,3,0,,undefined,"[9, 8, 1]",1,"[9, 4, 8]","[0, 0, 0]",2,response,alternative,
1,"[1, 0]",True,There is a diamond.,There is a club.,"[2, 8, 0]",0,17.798283333333334,True,2617,"[0, 0, 0]",0,,True,There is a tick.,"[1, 0]",,0,7489,,3,1,,undefined,"[1, 2, 9]",0,"[0, 5, 7]","[0, 0, 0]",2,filler,alternative,
0,"[1, 0]",True,There is a circle.,There is a diamond.,"[8, 2, 3]",0,17.798283333333334,True,3163,"[0, 0, 0]",0,,True,There is a note.,"[1, 0]",,0,8971,,3,0,,undefined,"[0, 9, 4]",0,"[7, 6, 0]","[0, 0, 0]",2,response,alternative,
3,"[0, 1]",True,Some of the symbols are squares.,2 + 4 = ?,"[8, 3, 5]",1,17.798283333333334,False,2834,"[9, 0, 0]",0,,False,3 + 5 = ?,"[0, 1]",,1,8794,,3,1,,undefined,"[6, 2, 4]",1,"[5, 9, 4]","[7, 0, 0]",0,filler,alternative,
0,"[0, 1]",True,Some of the symbols are clubs.,Some of the symbols are circles.,"[9, 1, 7]",1,17.798283333333334,True,2232,"[0, 0, 0]",0,,True,Some of the symbols are triangles.,"[1, 0]",,1,8601,,3,0,,undefined,"[7, 9, 8]",0,"[1, 2, 9]","[0, 0, 0]",0,response,alternative,
2,"[1, 0]",True,There is a diamond.,There is a diamond and a star.,"[4, 1, 3]",0,17.798283333333334,True,2504,"[0, 0, 0]",0,,True,There is a heart and a club.,"[1, 0]",,0,8615,,3,0,,undefined,"[0, 6, 2]",0,"[0, 4, 3]","[0, 0, 0]",2,response,alternative,
2,"[1, 0]",True,Some of the symbols are triangles.,All of the symbols are ticks.,"[7, 1, 2]",0,17.798283333333334,True,3529,"[0, 0, 0]",1,,True,All of the symbols are circles.,"[0, 1]",,0,8327,,3,1,,undefined,"[2, 0, 4]",1,"[9, 3, 5]","[0, 0, 0]",0,filler,alternative,
3,"[0, 1]",False,There is a square.,4 + 7 = ?,"[9, 2, 7]",1,17.798283333333334,False,2317,"[3, 0, 0]",1,,True,2 + 7 = ?,"[0, 1]",,0,7429,,3,1,,undefined,"[11, 4, 7]",1,"[5, 8, 4]","[6, 0, 0]",2,filler,alternative,
2,"[0, 1]",True,There are four triangles.,There are six triangles.,"[6, 4, 5]",1,17.798283333333334,True,2653,"[0, 0, 0]",0,,True,There are six stars.,"[1, 0]",,1,7042,,3,0,,undefined,"[9, 5, 8]",0,"[9, 4, 6]","[0, 0, 0]",1,response,alternative,
0,"[1, 0]",True,There is a circle.,There is a square.,"[5, 4, 3]",0,17.798283333333334,True,3070,"[0, 0, 0]",0,,True,There is a square.,"[1, 0]",,0,8802,,3,1,,undefined,"[5, 6, 2]",0,"[7, 9, 3]","[0, 0, 0]",2,filler,alternative,
2,"[0, 1]",True,Some of the symbols are stars.,All of the symbols are squares.,"[1, 2, 5]",1,17.798283333333334,True,3425,"[0, 0, 0]",1,,True,All of the symbols are clubs.,"[0, 1]",,1,8786,,3,0,,undefined,"[5, 6, 8]",1,"[6, 3, 9]","[0, 0, 0]",0,response,alternative,
3,"[1, 0]",True,Some of the symbols are circles.,3 + 9 = ?,"[7, 2, 5]",0,17.798283333333334,False,2643,"[3, 0, 0]",1,,False,2 + 5 = ?,"[1, 0]",,0,7941,,3,1,,undefined,"[12, 3, 9]",0,"[7, 2, 1]","[6, 0, 0]",0,filler,alternative,
2,"[1, 0]",True,There is a tick.,There is a diamond and a square.,"[7, 9, 8]",0,17.798283333333334,True,2718,"[0, 0, 0]",1,,True,There is a circle and a triangle.,"[0, 1]",,0,8480,,3,1,,undefined,"[0, 5, 4]",1,"[2, 5, 8]","[0, 0, 0]",2,filler,alternative,
0,"[1, 0]",True,There are four squares.,There are four ticks.,"[6, 2, 4]",0,17.798283333333334,True,2112,"[0, 0, 0]",1,,True,There are four stars.,"[0, 1]",,0,6933,,3,0,,undefined,"[2, 8, 6]",1,"[5, 7, 1]","[0, 0, 0]",1,response,alternative,
1,"[0, 1]",True,Some of the symbols are circles.,Some of the symbols are ticks.,"[5, 6, 2]",1,17.798283333333334,True,2688,"[0, 0, 0]",1,,True,Some of the symbols are squares.,"[0, 1]",,1,8624,,3,0,,undefined,"[2, 1, 6]",1,"[7, 9, 6]","[0, 0, 0]",0,response,alternative,
3,"[1, 0]",True,There is a circle.,4 + 7 = ?,"[1, 1, 0]",0,17.798283333333334,True,2297,"[9, 0, 0]",1,,True,1 + 0 = ?,"[0, 1]",,0,8154,,3,1,,undefined,"[11, 4, 7]",1,"[7, 0, 9]","[6, 0, 0]",2,filler,alternative,
2,"[1, 0]",True,Some of the symbols are stars.,All of the symbols are squares.,"[6, 1, 0]",0,17.798283333333334,True,2548,"[0, 0, 0]",0,,True,All of the symbols are stars.,"[1, 0]",,0,7788,,3,0,,undefined,"[5, 7, 0]",0,"[6, 9, 5]","[0, 0, 0]",0,response,alternative,
2,"[0, 1]",True,There is a spade.,There is a club and a star.,"[5, 3, 6]",1,17.798283333333334,True,2904,"[0, 0, 0]",0,,True,There is a square and a spade.,"[1, 0]",,1,7979,,3,1,,undefined,"[1, 6, 3]",0,"[3, 8, 2]","[0, 0, 0]",2,filler,alternative,
3,"[1, 0]",True,There is a square.,2 + 3 = ?,"[12, 7, 5]",0,17.798283333333334,True,2055,"[9, 0, 0]",1,,True,7 + 5 = ?,"[0, 1]",,0,6594,,3,0,,undefined,"[5, 2, 3]",1,"[5, 9, 2]","[7, 0, 0]",2,response,alternative,
2,"[0, 1]",True,Some of the symbols are stars.,All of the symbols are ticks.,"[3, 0, 8]",1,17.798283333333334,True,2576,"[0, 0, 0]",1,,True,All of the symbols are spades.,"[0, 1]",,1,8271,,3,1,,undefined,"[2, 1, 7]",1,"[6, 1, 7]","[0, 0, 0]",0,filler,alternative,
3,"[1, 0]",False,There is a circle.,9 + 6 = ?,"[6, 3, 3]",0,17.798283333333334,False,2231,"[7, 0, 0]",1,,False,3 + 3 = ?,"[1, 0]",,1,8407,,3,1,,undefined,"[15, 9, 6]",0,"[7, 5, 0]","[6, 0, 0]",2,filler,alternative,
1,"[0, 1]",True,There are four notes.,There are four notes.,"[2, 3, 4]",1,17.798283333333334,True,2653,"[0, 0, 0]",0,,True,There are four ticks.,"[1, 0]",,1,7171,,3,0,,undefined,"[8, 1, 5]",0,"[8, 1, 2]","[0, 0, 0]",1,response,alternative,
2,"[1, 0]",True,Some of the symbols are spades.,All of the symbols are diamonds.,"[9, 6, 2]",0,17.798283333333334,True,2765,"[0, 0, 0]",1,,True,All of the symbols are triangles.,"[0, 1]",,0,7829,,3,1,,undefined,"[0, 5, 9]",1,"[3, 2, 7]","[0, 0, 0]",0,filler,alternative,
1,"[1, 0]",True,There is a club.,There is a club.,"[8, 0, 4]",0,17.798283333333334,True,2497,"[0, 0, 0]",1,,True,There is a note.,"[0, 1]",,0,6999,,3,0,,undefined,"[1, 2, 8]",1,"[1, 7, 3]","[0, 0, 0]",2,response,alternative,
3,"[0, 1]",True,Some of the symbols are hearts.,1 + 2 = ?,"[12, 5, 7]",1,17.798283333333334,True,2335,"[4, 0, 0]",0,,True,5 + 7 = ?,"[1, 0]",,1,8479,,3,0,,undefined,"[3, 1, 2]",0,"[4, 3, 5]","[9, 0, 0]",0,response,alternative,
2,"[1, 0]",True,There are four hearts.,There are six circles.,"[6, 3, 2]",0,17.798283333333334,True,2819,"[0, 0, 0]",1,,True,There are six stars.,"[0, 1]",,0,7824,,3,1,,undefined,"[7, 9, 8]",1,"[4, 6, 2]","[0, 0, 0]",1,filler,alternative,
0,"[0, 1]",True,Some of the symbols are squares.,Some of the symbols are spades.,"[6, 2, 8]",1,17.798283333333334,True,3072,"[0, 0, 0]",1,,True,Some of the symbols are stars.,"[0, 1]",,1,8671,,3,0,,undefined,"[3, 5, 9]",1,"[5, 6, 0]","[0, 0, 0]",0,response,alternative,
2,"[0, 1]",True,There are four clubs.,There are six notes.,"[0, 4, 8]",1,17.798283333333334,True,2648,"[0, 0, 0]",0,,True,There are six diamonds.,"[1, 0]",,1,7604,,3,1,,undefined,"[8, 1, 3]",0,"[1, 0, 2]","[0, 0, 0]",1,filler,alternative,
1,"[1, 0]",True,Some of the symbols are spades.,Some of the symbols are notes.,"[1, 0, 9]",0,17.798283333333334,True,2635,"[0, 0, 0]",0,,True,Some of the symbols are clubs.,"[1, 0]",,0,7840,,3,0,,undefined,"[8, 6, 4]",0,"[3, 9, 6]","[0, 0, 0]",0,response,alternative,
3,"[1, 0]",True,There is a circle.,0 + 0 = ?,"[7, 7, 0]",0,17.798283333333334,False,2036,"[7, 0, 0]",1,,False,7 + 0 = ?,"[1, 0]",,0,6594,,3,0,,undefined,"[0, 0, 0]",0,"[7, 5, 2]","[0, 0, 0]",2,response,alternative,
3,"[1, 0]",True,There are four squares.,0 + 0 = ?,"[8, 8, 0]",0,17.798283333333334,True,2165,"[9, 0, 0]",1,,True,8 + 0 = ?,"[0, 1]",,0,6485,,3,1,,undefined,"[0, 0, 0]",1,"[5, 4, 6]","[7, 0, 0]",1,filler,alternative,
2,"[1, 0]",True,There is a diamond.,There is a square and a star.,"[5, 4, 7]",0,17.798283333333334,True,2548,"[0, 0, 0]",1,,True,There is a square and a heart.,"[0, 1]",,0,7381,,3,1,,undefined,"[5, 6, 1]",1,"[0, 1, 5]","[0, 0, 0]",2,filler,alternative,
1,"[0, 1]",True,There is a triangle.,There is a club.,"[0, 1, 7]",1,17.798283333333334,True,2750,"[0, 0, 0]",1,,True,There is a diamond.,"[0, 1]",,1,7429,,3,1,,undefined,"[1, 6, 7]",1,"[9, 8, 3]","[0, 0, 0]",2,filler,alternative,
3,"[0, 1]",False,Some of the symbols are hearts.,7 + 6 = ?,"[13, 7, 6]",1,17.798283333333334,False,2497,"[3, 0, 0]",1,,False,7 + 6 = ?,"[1, 0]",,0,8871,,3,0,,undefined,"[13, 7, 6]",0,"[4, 5, 3]","[9, 0, 0]",0,response,alternative,
1,"[1, 0]",True,Some of the symbols are triangles.,Some of the symbols are stars.,"[4, 7, 2]",0,17.798283333333334,True,2545,"[0, 0, 0]",1,,True,Some of the symbols are hearts.,"[0, 1]",,0,8271,,3,0,,undefined,"[6, 5, 3]",1,"[9, 4, 0]","[0, 0, 0]",0,response,alternative,
2,"[1, 0]",True,There is a triangle.,There is a diamond and a triangle.,"[3, 0, 1]",0,17.798283333333334,True,2485,"[0, 0, 0]",1,,True,There is a spade and a diamond.,"[0, 1]",,0,9819,,3,0,,undefined,"[0, 9, 4]",1,"[9, 8, 1]","[0, 0, 0]",2,response,alternative,
2,"[1, 0]",True,There is a square.,There is a square and a heart.,"[6, 1, 3]",0,17.798283333333334,True,2831,"[0, 0, 0]",0,,True,There is a star and a club.,"[1, 0]",,0,7781,,3,0,,undefined,"[5, 4, 1]",0,"[5, 1, 9]","[0, 0, 0]",2,response,alternative,
1,"[0, 1]",True,Some of the symbols are circles.,Some of the symbols are diamonds.,"[0, 8, 6]",1,17.798283333333334,True,2502,"[0, 0, 0]",0,,True,Some of the symbols are diamonds.,"[1, 0]",,1,8045,,3,1,,undefined,"[0, 1, 6]",0,"[7, 2, 9]","[0, 0, 0]",0,filler,alternative,
1,"[0, 1]",True,There are four notes.,There are four spades.,"[8, 1, 5]",1,17.798283333333334,True,2425,"[0, 0, 0]",1,,True,There are four notes.,"[0, 1]",,1,6847,,3,0,,undefined,"[3, 1, 6]",1,"[8, 4, 3]","[0, 0, 0]",1,response,alternative,
0,"[1, 0]",True,There is a star.,There is a triangle.,"[2, 8, 6]",0,17.798283333333334,True,2974,"[0, 0, 0]",0,,True,There is a tick.,"[1, 0]",,0,8129,,3,0,,undefined,"[9, 4, 2]",0,"[6, 7, 4]","[0, 0, 0]",2,response,alternative,
0,"[1, 0]",True,Some of the symbols are notes.,Some of the symbols are squares.,"[8, 5, 7]",0,17.798283333333334,True,2300,"[0, 0, 0]",0,,True,Some of the symbols are notes.,"[1, 0]",,0,7444,,3,0,,undefined,"[5, 4, 0]",0,"[8, 0, 9]","[0, 0, 0]",0,response,alternative,
3,"[0, 1]",True,There are four ticks.,0 + 6 = ?,"[8, 3, 5]",1,17.798283333333334,False,2137,"[1, 0, 0]",0,,False,3 + 5 = ?,"[0, 1]",,1,6848,,3,0,,undefined,"[6, 0, 6]",1,"[2, 6, 3]","[4, 0, 0]",1,response,alternative,
3,"[0, 1]",False,There are four ticks.,6 + 0 = ?,"[3, 1, 2]",1,17.798283333333334,False,1986,"[5, 0, 0]",1,,False,1 + 2 = ?,"[1, 0]",,0,6014,,3,0,,undefined,"[6, 6, 0]",0,"[2, 1, 9]","[8, 0, 0]",1,response,alternative,
3,"[1, 0]",False,There is a note.,3 + 6 = ?,"[11, 2, 9]",0,17.798283333333334,False,1959,"[4, 0, 0]",0,,False,2 + 9 = ?,"[0, 1]",,1,6630,,3,0,,undefined,"[9, 3, 6]",1,"[8, 6, 4]","[8, 0, 0]",2,response,alternative,
1,"[0, 1]",True,There is a heart.,There is a diamond.,"[7, 0, 9]",1,17.798283333333334,True,2854,"[0, 0, 0]",0,,True,There is a circle.,"[1, 0]",,1,7428,,3,1,,undefined,"[0, 2, 3]",0,"[4, 7, 6]","[0, 0, 0]",2,filler,alternative,
1,"[1, 0]",True,There are four diamonds.,There are four triangles.,"[4, 9, 5]",0,17.798283333333334,True,2302,"[0, 0, 0]",0,,True,There are four hearts.,"[1, 0]",,0,7053,,3,0,,undefined,"[9, 8, 1]",0,"[0, 2, 6]","[0, 0, 0]",1,response,alternative,
0,"[1, 0]",True,There are four diamonds.,There are four triangles.,"[8, 2, 6]",0,17.798283333333334,True,2362,"[0, 0, 0]",1,,True,There are four notes.,"[0, 1]",,0,6768,,3,1,,undefined,"[9, 3, 4]",1,"[0, 3, 1]","[0, 0, 0]",1,filler,alternative,
0,"[0, 1]",True,Some of the symbols are clubs.,Some of the symbols are squares.,"[1, 8, 2]",1,17.798283333333334,True,2369,"[0, 0, 0]",1,,True,Some of the symbols are clubs.,"[0, 1]",,1,7676,,3,1,,undefined,"[5, 0, 8]",1,"[1, 5, 2]","[0, 0, 0]",0,filler,alternative,
2,"[0, 1]",True,Some of the symbols are stars.,All of the symbols are triangles.,"[6, 0, 3]",1,17.798283333333334,True,2986,"[0, 0, 0]",1,,True,All of the symbols are stars.,"[0, 1]",,1,8544,,3,0,,undefined,"[9, 3, 0]",1,"[6, 7, 2]","[0, 0, 0]",0,response,alternative,
1,"[1, 0]",True,Some of the symbols are hearts.,Some of the symbols are notes.,"[4, 0, 2]",0,17.798283333333334,True,2593,"[0, 0, 0]",0,,True,Some of the symbols are hearts.,"[1, 0]",,0,8327,,3,1,,undefined,"[8, 4, 5]",0,"[4, 2, 3]","[0, 0, 0]",0,filler,alternative,
3,"[0, 1]",True,There are four clubs.,0 + 0 = ?,"[17, 9, 8]",1,17.798283333333334,True,2168,"[4, 0, 0]",0,,True,9 + 8 = ?,"[1, 0]",,1,7687,,3,0,,undefined,"[0, 0, 0]",0,"[1, 8, 6]","[0, 0, 0]",1,response,alternative,
0,"[1, 0]",True,There are four circles.,There are four clubs.,"[3, 1, 5]",0,17.798283333333334,True,2262,"[0, 0, 0]",1,,True,There are four spades.,"[0, 1]",,0,6489,,3,0,,undefined,"[1, 4, 3]",1,"[7, 0, 3]","[0, 0, 0]",1,response,alternative,
0,"[1, 0]",True,There are four diamonds.,There are four stars.,"[1, 2, 3]",0,17.798283333333334,True,2086,"[0, 0, 0]",1,,True,There are four clubs.,"[0, 1]",,0,6477,,3,0,,undefined,"[6, 0, 2]",1,"[0, 2, 3]","[0, 0, 0]",1,response,alternative,
2,"[1, 0]",True,There are four notes.,There are six clubs.,"[7, 6, 9]",0,17.798283333333334,True,2509,"[0, 0, 0]",1,,True,There are six circles.,"[0, 1]",,0,7163,,3,0,,undefined,"[1, 4, 2]",1,"[8, 6, 3]","[0, 0, 0]",1,response,alternative,
2,"[1, 0]",True,Some of the symbols are triangles.,All of the symbols are notes.,"[1, 9, 5]",0,17.798283333333334,True,2516,"[0, 0, 0]",1,,True,All of the symbols are clubs.,"[0, 1]",,0,7551,,3,0,,undefined,"[8, 6, 5]",1,"[9, 2, 0]","[0, 0, 0]",0,response,alternative,
3,"[1, 0]",True,There are four clubs.,2 + 0 = ?,"[14, 7, 7]",0,17.798283333333334,True,2417,"[2, 0, 0]",0,,True,7 + 7 = ?,"[1, 0]",,0,7473,,3,1,,undefined,"[2, 2, 0]",0,"[1, 8, 7]","[5, 0, 0]",1,filler,alternative,
0,"[1, 0]",True,There is a club.,There is a circle.,"[8, 3, 9]",0,17.798283333333334,True,2575,"[0, 0, 0]",0,,True,There is a note.,"[1, 0]",,0,7027,,3,0,,undefined,"[7, 1, 4]",0,"[1, 6, 7]","[0, 0, 0]",2,response,alternative,
0,"[1, 0]",True,There are four clubs.,There are four spades.,"[3, 8, 5]",0,17.798283333333334,True,2313,"[0, 0, 0]",1,,True,There are four spades.,"[0, 1]",,0,6644,,3,1,,undefined,"[3, 0, 4]",1,"[1, 0, 9]","[0, 0, 0]",1,filler,alternative,
2,"[0, 1]",True,There are four circles.,There are six hearts.,"[3, 2, 5]",1,17.798283333333334,True,2154,"[0, 0, 0]",0,,True,There are six spades.,"[1, 0]",,1,6649,,3,1,,undefined,"[4, 1, 6]",0,"[7, 4, 3]","[0, 0, 0]",1,filler,alternative,
,,,,,,,11.904283333333334,,,,,,,,,"[0, 'Jessica']",,,1,4,,Jessica,undefined,,,,,,,,bot_check
2,"[1, 0]",True,There is a tick.,There is a triangle and a club.,"[3, 5, 7]",0,11.904283333333334,True,3651,"[0, 0, 0]",0,,True,There is a spade and a square.,"[1, 0]",,0,9396,,4,1,,undefined,"[9, 1, 6]",0,"[2, 4, 3]","[0, 0, 0]",2,filler,alternative,
3,"[0, 1]",False,There is a tick.,2 + 1 = ?,"[9, 3, 6]",1,11.904283333333334,False,2512,"[8, 0, 0]",0,,True,3 + 6 = ?,"[1, 0]",,0,10011,,4,1,,undefined,"[3, 2, 1]",0,"[2, 4, 1]","[9, 0, 0]",2,filler,alternative,
2,"[0, 1]",True,There are four triangles.,There are six notes.,"[6, 3, 5]",1,11.904283333333334,True,3958,"[0, 0, 0]",1,,True,There are six stars.,"[0, 1]",,1,8192,,4,1,,undefined,"[8, 0, 3]",1,"[9, 3, 0]","[0, 0, 0]",1,response,alternative,
3,"[1, 0]",False,There is a note.,7 + 2 = ?,"[2, 1, 1]",0,11.904283333333334,False,2614,"[2, 0, 0]",0,,False,1 + 1 = ?,"[0, 1]",,1,5686,,4,0,,undefined,"[9, 7, 2]",1,"[8, 7, 4]","[1, 0, 0]",2,response,alternative,
0,"[1, 0]",True,There is a star.,There is a heart.,"[5, 4, 6]",0,11.904283333333334,True,3826,"[0, 0, 0]",1,,True,There is a square.,"[0, 1]",,0,7702,,4,1,,undefined,"[4, 1, 9]",1,"[6, 1, 2]","[0, 0, 0]",2,filler,alternative,
2,"[1, 0]",True,Some of the symbols are stars.,All of the symbols are clubs.,"[7, 5, 1]",0,11.904283333333334,True,4681,"[0, 0, 0]",0,,True,All of the symbols are circles.,"[1, 0]",,0,13222,,4,1,,undefined,"[1, 8, 9]",0,"[6, 7, 4]","[0, 0, 0]",0,response,alternative,
1,"[0, 1]",True,Some of the symbols are notes.,Some of the symbols are circles.,"[3, 1, 4]",1,11.904283333333334,True,4541,"[0, 0, 0]",0,,True,Some of the symbols are spades.,"[1, 0]",,1,13374,,4,1,,undefined,"[7, 3, 9]",0,"[8, 9, 4]","[0, 0, 0]",0,response,alternative,
0,"[0, 1]",True,Some of the symbols are diamonds.,Some of the symbols are clubs.,"[6, 0, 1]",1,11.904283333333334,True,3048,"[0, 0, 0]",0,,True,Some of the symbols are stars.,"[1, 0]",,1,8397,,4,0,,undefined,"[1, 2, 3]",0,"[0, 1, 4]","[0, 0, 0]",0,response,alternative,
1,"[0, 1]",True,There are four ticks.,There are four triangles.,"[7, 0, 5]",1,11.904283333333334,True,2262,"[0, 0, 0]",0,,True,There are four circles.,"[1, 0]",,1,6488,,4,1,,undefined,"[9, 5, 1]",0,"[2, 6, 1]","[0, 0, 0]",1,response,alternative,
0,"[0, 1]",True,There are four spades.,There are four circles.,"[0, 8, 4]",1,11.904283333333334,True,2665,"[0, 0, 0]",0,,True,There are four diamonds.,"[1, 0]",,1,7841,,4,1,,undefined,"[7, 0, 5]",0,"[3, 0, 4]","[0, 0, 0]",1,filler,alternative,
2,"[0, 1]",True,Some of the symbols are diamonds.,All of the symbols are squares.,"[9, 4, 0]",1,11.904283333333334,True,2809,"[0, 0, 0]",0,,True,All of the symbols are triangles.,"[1, 0]",,1,7982,,4,1,,undefined,"[5, 2, 4]",0,"[0, 1, 3]","[0, 0, 0]",0,filler,alternative,
1,"[0, 1]",True,Some of the symbols are circles.,Some of the symbols are squares.,"[2, 6, 9]",1,11.904283333333334,True,2084,"[0, 0, 0]",0,,True,Some of the symbols are ticks.,"[1, 0]",,1,6024,,4,1,,undefined,"[5, 8, 7]",0,"[7, 1, 6]","[0, 0, 0]",0,filler,alternative,
1,"[0, 1]",True,There are four spades.,There are four stars.,"[0, 7, 9]",1,11.904283333333334,True,2528,"[0, 0, 0]",1,,True,There are four diamonds.,"[0, 1]",,1,5515,,4,1,,undefined,"[6, 9, 0]",1,"[3, 2, 4]","[0, 0, 0]",1,filler,alternative,
2,"[0, 1]",True,There is a club.,There is a tick and a spade.,"[8, 7, 2]",1,11.904283333333334,True,1739,"[0, 0, 0]",1,,True,There is a note and a circle.,"[0, 1]",,1,6131,,4,0,,undefined,"[2, 3, 0]",1,"[1, 2, 4]","[0, 0, 0]",2,response,alternative,
3,"[1, 0]",True,Some of the symbols are circles.,6 + 6 = ?,"[8, 4, 4]",0,11.904283333333334,True,4687,"[7, 0, 0]",1,,True,4 + 4 = ?,"[0, 1]",,0,7825,,4,0,,undefined,"[12, 6, 6]",1,"[7, 8, 2]","[7, 0, 0]",0,response,alternative,
1,"[1, 0]",True,There is a triangle.,There is a note.,"[5, 2, 1]",0,11.904283333333334,True,1667,"[0, 0, 0]",0,,True,There is a square.,"[1, 0]",,0,6512,,4,0,,undefined,"[8, 4, 5]",0,"[9, 6, 8]","[0, 0, 0]",2,response,alternative,
3,"[1, 0]",False,There are four hearts.,3 + 7 = ?,"[1, 0, 1]",0,11.904283333333334,False,2373,"[4, 0, 0]",0,,False,0 + 1 = ?,"[0, 1]",,1,5784,,4,0,,undefined,"[10, 3, 7]",1,"[4, 7, 3]","[9, 0, 0]",1,response,alternative,
2,"[0, 1]",True,Some of the symbols are notes.,All of the symbols are clubs.,"[5, 0, 3]",1,11.904283333333334,True,2663,"[0, 0, 0]",0,,True,All of the symbols are squares.,"[1, 0]",,1,6621,,4,1,,undefined,"[1, 6, 2]",0,"[8, 1, 5]","[0, 0, 0]",0,filler,alternative,
2,"[1, 0]",True,There are four triangles.,There are six hearts.,"[0, 2, 8]",0,11.904283333333334,True,2265,"[0, 0, 0]",1,,True,There are six diamonds.,"[0, 1]",,0,5876,,4,1,,undefined,"[4, 3, 1]",1,"[9, 6, 4]","[0, 0, 0]",1,filler,alternative,
1,"[0, 1]",True,Some of the symbols are clubs.,Some of the symbols are diamonds.,"[1, 0, 8]",1,11.904283333333334,True,2368,"[0, 0, 0]",1,,True,Some of the symbols are clubs.,"[0, 1]",,1,7034,,4,1,,undefined,"[0, 4, 7]",1,"[1, 2, 9]","[0, 0, 0]",0,filler,alternative,
2,"[0, 1]",True,Some of the symbols are ticks.,All of the symbols are spades.,"[5, 6, 7]",1,11.904283333333334,True,5149,"[0, 0, 0]",0,,True,All of the symbols are squares.,"[1, 0]",,1,9694,,4,0,,undefined,"[3, 9, 2]",0,"[2, 0, 1]","[0, 0, 0]",0,response,alternative,
3,"[0, 1]",True,Some of the symbols are ticks.,2 + 9 = ?,"[9, 8, 1]",1,11.904283333333334,False,2262,"[5, 0, 0]",0,,False,8 + 1 = ?,"[0, 1]",,1,5665,,4,1,,undefined,"[11, 2, 9]",1,"[2, 4, 0]","[5, 0, 0]",0,filler,alternative,
0,"[1, 0]",True,Some of the symbols are circles.,Some of the symbols are clubs.,"[0, 7, 5]",0,11.904283333333334,True,1651,"[0, 0, 0]",1,,True,Some of the symbols are diamonds.,"[0, 1]",,0,7511,,4,0,,undefined,"[1, 8, 6]",1,"[7, 5, 9]","[0, 0, 0]",0,response,alternative,
0,"[1, 0]",True,Some of the symbols are circles.,Some of the symbols are diamonds.,"[1, 5, 7]",0,11.904283333333334,True,1878,"[0, 0, 0]",0,,True,Some of the symbols are clubs.,"[1, 0]",,0,7149,,4,0,,undefined,"[0, 2, 4]",0,"[7, 9, 5]","[0, 0, 0]",0,response,alternative,
0,"[1, 0]",True,There is a heart.,There is a club.,"[9, 8, 2]",0,11.904283333333334,True,1930,"[0, 0, 0]",0,,True,There is a triangle.,"[1, 0]",,0,6045,,4,0,,undefined,"[1, 8, 4]",0,"[4, 9, 7]","[0, 0, 0]",2,response,alternative,
0,"[1, 0]",True,There is a tick.,There is a star.,"[2, 9, 3]",0,11.904283333333334,True,2069,"[0, 0, 0]",0,,True,There is a tick.,"[1, 0]",,0,6251,,4,1,,undefined,"[6, 2, 5]",0,"[2, 3, 8]","[0, 0, 0]",2,filler,alternative,
0,"[0, 1]",True,There is a heart.,There is a spade.,"[5, 3, 9]",1,11.904283333333334,True,1858,"[0, 0, 0]",0,,True,There is a square.,"[1, 0]",,1,6238,,4,1,,undefined,"[3, 6, 4]",0,"[4, 8, 7]","[0, 0, 0]",2,filler,alternative,
3,"[0, 1]",False,There is a note.,1 + 6 = ?,"[16, 9, 7]",1,11.904283333333334,False,1389,"[1, 0, 0]",1,,True,9 + 7 = ?,"[0, 1]",,0,4485,,4,0,,undefined,"[7, 1, 6]",1,"[8, 5, 3]","[5, 0, 0]",2,response,alternative,
1,"[0, 1]",True,There are four triangles.,There are four squares.,"[3, 1, 2]",1,11.904283333333334,True,1878,"[0, 0, 0]",1,,True,There are four spades.,"[0, 1]",,1,5378,,4,1,,undefined,"[5, 9, 3]",1,"[9, 5, 3]","[0, 0, 0]",1,filler,alternative,
2,"[1, 0]",True,There are four triangles.,There are six hearts.,"[3, 7, 9]",0,11.904283333333334,True,1713,"[0, 0, 0]",1,,True,There are six spades.,"[0, 1]",,0,6519,,4,1,,undefined,"[4, 0, 2]",1,"[9, 2, 8]","[0, 0, 0]",1,filler,alternative,
2,"[1, 0]",True,There is a club.,There is a club and a star.,"[0, 4, 8]",0,11.904283333333334,True,2819,"[0, 0, 0]",0,,True,There is a diamond and a heart.,"[1, 0]",,0,7972,,4,1,,undefined,"[1, 6, 8]",0,"[1, 3, 6]","[0, 0, 0]",2,filler,alternative,
