goodPTChoice,response,goodPOChoice,pTChoice,response_rt,Answer.condition,primeStrength,trial_type,pOSymbols,slide_type,responseChoice,image,primeType,workerid,pTSymbols,audio,responseSymbols,responseSentence,pOChoice,slide_number,primeOShuffle,correctPChoices,correctPOChoice,btwncondition,Answer.time_in_minutes,correctPTChoice,pTSentence,pTwrongAnswer,pOwrongAnswer,block_rt,pOSentence,primeTShuffle
,"[0, 'Susan']",,,,undefined,,,,bot_check,,Susan,,0,,,,,,1,,,,,6.291416666666667,,,,,,,
0,,1,0,1392,undefined,0,response,"[0, 7, 8]",,0,,1,0,"[4, 0, 7]",,"[1, 8, 0]",There are four clubs.,1,,"[0, 1]",True,True,alternative,6.291416666666667,True,There are four hearts.,"[0, 0, 0]","[0, 0, 0]",4427,There are four diamonds.,"[1, 0]"
0,,1,0,4109,undefined,2,filler,"[1, 5, 7]",,1,,1,0,"[0, 6, 3]",,"[6, 4, 8]",There are four stars.,1,,"[0, 1]",True,True,alternative,6.291416666666667,True,There are six diamonds.,"[0, 0, 0]","[0, 0, 0]",9497,There are six clubs.,"[1, 0]"
1,,1,1,1572,undefined,3,filler,"[8, 7, 1]",,1,,0,0,"[11, 5, 6]",,"[0, 1, 8]",Some of the symbols are diamonds.,0,,"[0, 1]",False,False,alternative,6.291416666666667,True,5 + 6 = ?,"[9, 0, 0]","[1, 0, 0]",11351,7 + 1 = ?,"[0, 1]"
0,,1,0,1142,undefined,2,filler,"[2, 3, 1]",,1,,0,0,"[5, 7, 4]",,"[7, 3, 0]",Some of the symbols are circles.,1,,"[0, 1]",True,True,alternative,6.291416666666667,True,All of the symbols are squares.,"[0, 0, 0]","[0, 0, 0]",3218,All of the symbols are ticks.,"[1, 0]"
0,,0,0,1312,undefined,1,response,"[6, 1, 0]",,1,,0,0,"[6, 1, 8]",,"[2, 8, 0]",Some of the symbols are ticks.,0,,"[1, 0]",True,True,alternative,6.291416666666667,True,Some of the symbols are stars.,"[0, 0, 0]","[0, 0, 0]",4567,Some of the symbols are stars.,"[1, 0]"
0,,1,0,1100,undefined,1,response,"[2, 8, 7]",,0,,2,0,"[7, 6, 9]",,"[6, 1, 7]",There is a star.,1,,"[0, 1]",True,True,alternative,6.291416666666667,True,There is a circle.,"[0, 0, 0]","[0, 0, 0]",3070,There is a tick.,"[1, 0]"
0,,0,0,1205,undefined,2,filler,"[8, 5, 6]",,1,,2,0,"[4, 5, 6]",,"[5, 4, 2]",There is a square.,0,,"[1, 0]",True,True,alternative,6.291416666666667,True,There is a heart and a square.,"[0, 0, 0]","[0, 0, 0]",4015,There is a note and a square.,"[1, 0]"
1,,1,1,1188,undefined,1,filler,"[1, 6, 2]",,1,,0,0,"[9, 5, 3]",,"[8, 9, 3]",Some of the symbols are notes.,1,,"[0, 1]",True,True,alternative,6.291416666666667,True,Some of the symbols are triangles.,"[0, 0, 0]","[0, 0, 0]",3978,Some of the symbols are clubs.,"[0, 1]"
1,,0,1,1149,undefined,3,filler,"[8, 4, 4]",,1,,2,0,"[15, 9, 6]",,"[8, 7, 0]",There is a note.,0,,"[1, 0]",True,True,alternative,6.291416666666667,True,9 + 6 = ?,"[9, 0, 0]","[9, 0, 0]",3227,4 + 4 = ?,"[0, 1]"
1,,1,1,999,undefined,2,response,"[7, 3, 2]",,0,,2,0,"[1, 5, 7]",,"[6, 5, 1]",There is a star.,1,,"[0, 1]",True,True,alternative,6.291416666666667,True,There is a club and a square.,"[0, 0, 0]","[0, 0, 0]",3046,There is a circle and a spade.,"[0, 1]"
1,,0,1,1030,undefined,3,response,"[5, 4, 1]",,0,,2,0,"[14, 5, 9]",,"[0, 2, 6]",There is a diamond.,0,,"[1, 0]",True,True,alternative,6.291416666666667,True,5 + 9 = ?,"[3, 0, 0]","[2, 0, 0]",2883,4 + 1 = ?,"[0, 1]"
0,,1,0,966,undefined,0,filler,"[8, 0, 2]",,0,,2,0,"[7, 6, 1]",,"[8, 3, 2]",There is a note.,1,,"[0, 1]",True,True,alternative,6.291416666666667,True,There is a circle.,"[0, 0, 0]","[0, 0, 0]",3478,There is a note.,"[1, 0]"
0,,0,0,1553,undefined,1,response,"[3, 9, 8]",,0,,1,0,"[7, 5, 3]",,"[4, 6, 5]",There are four hearts.,0,,"[1, 0]",True,True,alternative,6.291416666666667,True,There are four circles.,"[0, 0, 0]","[0, 0, 0]",4731,There are four spades.,"[1, 0]"
1,,0,1,1444,undefined,1,filler,"[2, 9, 4]",,1,,2,0,"[9, 0, 6]",,"[0, 6, 9]",There is a diamond.,0,,"[1, 0]",True,True,alternative,6.291416666666667,True,There is a triangle.,"[0, 0, 0]","[0, 0, 0]",3369,There is a tick.,"[0, 1]"
1,,0,0,1175,undefined,3,response,"[15, 9, 6]",,1,,1,0,"[14, 8, 6]",,"[0, 6, 4]",There are four diamonds.,1,,"[1, 0]",False,False,alternative,6.291416666666667,False,8 + 6 = ?,"[6, 0, 0]","[0, 0, 0]",3626,9 + 6 = ?,"[0, 1]"
0,,0,0,1231,undefined,2,response,"[6, 8, 0]",,0,,2,0,"[2, 9, 3]",,"[8, 0, 9]",There is a note.,0,,"[1, 0]",True,True,alternative,6.291416666666667,True,There is a tick and a triangle.,"[0, 0, 0]","[0, 0, 0]",3435,There is a star and a note.,"[1, 0]"
1,,1,1,1685,undefined,2,response,"[1, 6, 3]",,0,,1,0,"[1, 7, 3]",,"[7, 5, 4]",There are four circles.,1,,"[0, 1]",True,True,alternative,6.291416666666667,True,There are six clubs.,"[0, 0, 0]","[0, 0, 0]",4131,There are six clubs.,"[0, 1]"
0,,0,0,1055,undefined,2,response,"[9, 4, 8]",,1,,0,0,"[5, 1, 8]",,"[8, 0, 6]",Some of the symbols are notes.,0,,"[1, 0]",True,True,alternative,6.291416666666667,True,All of the symbols are squares.,"[0, 0, 0]","[0, 0, 0]",3693,All of the symbols are triangles.,"[1, 0]"
0,,1,0,1113,undefined,3,response,"[11, 8, 3]",,1,,0,0,"[10, 6, 4]",,"[1, 9, 4]",Some of the symbols are clubs.,1,,"[0, 1]",True,True,alternative,6.291416666666667,True,6 + 4 = ?,"[8, 0, 0]","[0, 0, 0]",3914,8 + 3 = ?,"[1, 0]"
0,,1,1,990,undefined,3,response,"[4, 0, 4]",,0,,2,0,"[6, 4, 2]",,"[6, 9, 1]",There is a star.,0,,"[0, 1]",False,False,alternative,6.291416666666667,False,4 + 2 = ?,"[1, 0, 0]","[7, 0, 0]",2860,0 + 4 = ?,"[1, 0]"
1,,1,1,893,undefined,1,response,"[6, 1, 4]",,0,,1,0,"[9, 8, 0]",,"[6, 8, 5]",There are four stars.,1,,"[0, 1]",True,True,alternative,6.291416666666667,True,There are four triangles.,"[0, 0, 0]","[0, 0, 0]",2611,There are four stars.,"[0, 1]"
0,,1,0,922,undefined,1,filler,"[3, 6, 0]",,1,,1,0,"[1, 2, 7]",,"[2, 7, 6]",There are four ticks.,1,,"[0, 1]",True,True,alternative,6.291416666666667,True,There are four clubs.,"[0, 0, 0]","[0, 0, 0]",3207,There are four spades.,"[1, 0]"
1,,0,1,1039,undefined,0,filler,"[4, 8, 0]",,1,,0,0,"[2, 6, 3]",,"[5, 9, 6]",Some of the symbols are squares.,0,,"[1, 0]",True,True,alternative,6.291416666666667,True,Some of the symbols are ticks.,"[0, 0, 0]","[0, 0, 0]",3588,Some of the symbols are hearts.,"[0, 1]"
1,,0,1,930,undefined,0,response,"[9, 5, 1]",,0,,2,0,"[5, 8, 1]",,"[3, 5, 4]",There is a spade.,0,,"[1, 0]",True,True,alternative,6.291416666666667,True,There is a square.,"[0, 0, 0]","[0, 0, 0]",3002,There is a triangle.,"[0, 1]"
0,,0,0,1229,undefined,2,filler,"[5, 3, 6]",,1,,0,0,"[1, 9, 8]",,"[6, 1, 7]",Some of the symbols are stars.,0,,"[1, 0]",True,True,alternative,6.291416666666667,True,All of the symbols are clubs.,"[0, 0, 0]","[0, 0, 0]",4514,All of the symbols are squares.,"[1, 0]"
1,,0,1,917,undefined,1,filler,"[8, 1, 7]",,1,,0,0,"[2, 0, 6]",,"[6, 9, 7]",Some of the symbols are stars.,0,,"[1, 0]",True,True,alternative,6.291416666666667,True,Some of the symbols are ticks.,"[0, 0, 0]","[0, 0, 0]",2806,Some of the symbols are notes.,"[0, 1]"
1,,0,1,1015,undefined,3,response,"[6, 4, 2]",,1,,1,0,"[7, 0, 7]",,"[2, 5, 1]",There are four ticks.,0,,"[1, 0]",True,True,alternative,6.291416666666667,True,0 + 7 = ?,"[1, 0, 0]","[2, 0, 0]",2712,4 + 2 = ?,"[0, 1]"
0,,1,0,1089,undefined,1,response,"[4, 1, 0]",,0,,2,0,"[9, 6, 7]",,"[3, 2, 6]",There is a spade.,1,,"[0, 1]",True,True,alternative,6.291416666666667,True,There is a triangle.,"[0, 0, 0]","[0, 0, 0]",2804,There is a heart.,"[1, 0]"
0,,1,0,903,undefined,0,response,"[2, 5, 9]",,0,,1,0,"[3, 4, 9]",,"[6, 5, 3]",There are four stars.,1,,"[0, 1]",True,True,alternative,6.291416666666667,True,There are four spades.,"[0, 0, 0]","[0, 0, 0]",2938,There are four ticks.,"[1, 0]"
0,,1,0,996,undefined,2,filler,"[9, 4, 1]",,1,,2,0,"[9, 4, 2]",,"[6, 1, 5]",There is a star.,1,,"[0, 1]",True,True,alternative,6.291416666666667,True,There is a triangle and a heart.,"[0, 0, 0]","[0, 0, 0]",3054,There is a triangle and a heart.,"[1, 0]"
1,,0,0,1743,undefined,3,response,"[11, 3, 8]",,0,,2,0,"[8, 7, 1]",,"[1, 5, 0]",There is a club.,1,,"[1, 0]",False,False,alternative,6.291416666666667,False,7 + 1 = ?,"[1, 0, 0]","[7, 0, 0]",4442,3 + 8 = ?,"[0, 1]"
1,,0,1,880,undefined,2,filler,"[8, 9, 6]",,1,,1,0,"[4, 8, 2]",,"[1, 9, 7]",There are four clubs.,0,,"[1, 0]",True,True,alternative,6.291416666666667,True,There are six hearts.,"[0, 0, 0]","[0, 0, 0]",2769,There are six notes.,"[0, 1]"
1,,1,1,896,undefined,0,filler,"[1, 4, 0]",,1,,1,0,"[6, 7, 5]",,"[9, 1, 4]",There are four triangles.,1,,"[0, 1]",True,True,alternative,6.291416666666667,True,There are four stars.,"[0, 0, 0]","[0, 0, 0]",2659,There are four clubs.,"[0, 1]"
1,,1,1,1212,undefined,3,filler,"[8, 4, 4]",,1,,2,0,"[5, 3, 2]",,"[2, 9, 0]",There is a tick.,0,,"[0, 1]",False,False,alternative,6.291416666666667,True,3 + 2 = ?,"[6, 0, 0]","[3, 0, 0]",3919,4 + 4 = ?,"[0, 1]"
0,,1,0,958,undefined,2,response,"[0, 7, 8]",,1,,2,0,"[7, 3, 0]",,"[0, 6, 5]",There is a diamond.,1,,"[0, 1]",True,True,alternative,6.291416666666667,True,There is a circle and a spade.,"[0, 0, 0]","[0, 0, 0]",3038,There is a diamond and a circle.,"[1, 0]"
0,,0,1,882,undefined,3,filler,"[3, 3, 0]",,1,,1,0,"[12, 8, 4]",,"[1, 5, 3]",There are four clubs.,0,,"[1, 0]",False,True,alternative,6.291416666666667,False,8 + 4 = ?,"[6, 0, 0]","[4, 0, 0]",3858,3 + 0 = ?,"[1, 0]"
1,,0,1,1383,undefined,0,filler,"[1, 7, 6]",,1,,2,0,"[6, 9, 1]",,"[6, 3, 1]",There is a star.,0,,"[1, 0]",True,True,alternative,6.291416666666667,True,There is a star.,"[0, 0, 0]","[0, 0, 0]",3614,There is a club.,"[0, 1]"
0,,0,0,2104,undefined,2,response,"[6, 0, 4]",,1,,1,0,"[7, 3, 8]",,"[3, 9, 4]",There are four spades.,0,,"[1, 0]",True,True,alternative,6.291416666666667,True,There are six circles.,"[0, 0, 0]","[0, 0, 0]",4072,There are six stars.,"[1, 0]"
1,,1,1,818,undefined,0,response,"[9, 7, 2]",,0,,1,0,"[9, 8, 6]",,"[9, 5, 1]",There are four triangles.,1,,"[0, 1]",True,True,alternative,6.291416666666667,True,There are four triangles.,"[0, 0, 0]","[0, 0, 0]",3294,There are four triangles.,"[0, 1]"
1,,1,1,1021,undefined,1,filler,"[8, 0, 5]",,1,,2,0,"[8, 7, 4]",,"[4, 3, 9]",There is a heart.,1,,"[0, 1]",True,True,alternative,6.291416666666667,True,There is a note.,"[0, 0, 0]","[0, 0, 0]",3528,There is a note.,"[0, 1]"
1,,1,1,1494,undefined,2,response,"[0, 6, 9]",,1,,0,0,"[2, 5, 7]",,"[5, 3, 1]",Some of the symbols are squares.,1,,"[0, 1]",True,True,alternative,6.291416666666667,True,All of the symbols are ticks.,"[0, 0, 0]","[0, 0, 0]",3586,All of the symbols are diamonds.,"[0, 1]"
0,,0,0,956,undefined,3,filler,"[9, 5, 4]",,1,,1,0,"[12, 3, 9]",,"[7, 6, 4]",There are four circles.,1,,"[1, 0]",False,False,alternative,6.291416666666667,True,3 + 9 = ?,"[4, 0, 0]","[3, 0, 0]",3802,5 + 4 = ?,"[1, 0]"
1,,0,1,879,undefined,0,filler,"[6, 7, 0]",,1,,1,0,"[8, 5, 2]",,"[5, 9, 7]",There are four squares.,0,,"[1, 0]",True,True,alternative,6.291416666666667,True,There are four notes.,"[0, 0, 0]","[0, 0, 0]",2570,There are four stars.,"[0, 1]"
1,,0,1,1114,undefined,1,response,"[7, 0, 9]",,1,,0,0,"[7, 1, 9]",,"[8, 5, 9]",Some of the symbols are notes.,0,,"[1, 0]",True,True,alternative,6.291416666666667,True,Some of the symbols are circles.,"[0, 0, 0]","[0, 0, 0]",3173,Some of the symbols are circles.,"[0, 1]"
1,,0,1,993,undefined,1,filler,"[2, 7, 9]",,1,,2,0,"[3, 1, 5]",,"[0, 3, 7]",There is a diamond.,0,,"[1, 0]",True,True,alternative,6.291416666666667,True,There is a spade.,"[0, 0, 0]","[0, 0, 0]",2732,There is a tick.,"[0, 1]"
0,,1,0,998,undefined,1,response,"[6, 2, 8]",,1,,1,0,"[3, 7, 6]",,"[1, 5, 8]",There are four clubs.,1,,"[0, 1]",True,True,alternative,6.291416666666667,True,There are four spades.,"[0, 0, 0]","[0, 0, 0]",3563,There are four stars.,"[1, 0]"
0,,0,0,924,undefined,1,response,"[9, 6, 4]",,1,,0,0,"[2, 0, 4]",,"[2, 8, 3]",Some of the symbols are ticks.,0,,"[1, 0]",True,True,alternative,6.291416666666667,True,Some of the symbols are ticks.,"[0, 0, 0]","[0, 0, 0]",3163,Some of the symbols are triangles.,"[1, 0]"
0,,0,0,1011,undefined,2,filler,"[7, 8, 2]",,1,,2,0,"[1, 0, 5]",,"[6, 7, 9]",There is a star.,0,,"[1, 0]",True,True,alternative,6.291416666666667,True,There is a club and a diamond.,"[0, 0, 0]","[0, 0, 0]",3350,There is a circle and a note.,"[1, 0]"
0,,0,0,875,undefined,3,filler,"[12, 8, 4]",,1,,2,0,"[6, 0, 6]",,"[6, 4, 7]",There is a star.,1,,"[1, 0]",False,False,alternative,6.291416666666667,True,0 + 6 = ?,"[2, 0, 0]","[4, 0, 0]",2860,8 + 4 = ?,"[1, 0]"
0,,0,0,820,undefined,0,filler,"[3, 0, 1]",,1,,1,0,"[6, 2, 1]",,"[3, 9, 1]",There are four spades.,0,,"[1, 0]",True,True,alternative,6.291416666666667,True,There are four stars.,"[0, 0, 0]","[0, 0, 0]",3309,There are four spades.,"[1, 0]"
0,,0,1,1302,undefined,3,filler,"[6, 2, 4]",,0,,1,0,"[12, 6, 6]",,"[6, 4, 2]",There are four stars.,0,,"[1, 0]",False,True,alternative,6.291416666666667,False,6 + 6 = ?,"[4, 0, 0]","[1, 0, 0]",3349,2 + 4 = ?,"[1, 0]"
1,,1,0,1140,undefined,3,response,"[13, 7, 6]",,1,,0,0,"[7, 5, 2]",,"[3, 4, 2]",Some of the symbols are spades.,1,,"[0, 1]",False,True,alternative,6.291416666666667,False,5 + 2 = ?,"[6, 0, 0]","[2, 0, 0]",4704,7 + 6 = ?,"[0, 1]"
1,,1,0,1010,undefined,3,response,"[13, 7, 6]",,1,,1,0,"[16, 9, 7]",,"[1, 4, 7]",There are four clubs.,1,,"[0, 1]",False,True,alternative,6.291416666666667,False,9 + 7 = ?,"[3, 0, 0]","[2, 0, 0]",4563,7 + 6 = ?,"[0, 1]"
1,,1,1,892,undefined,0,filler,"[8, 1, 2]",,1,,0,0,"[6, 8, 7]",,"[7, 3, 2]",Some of the symbols are circles.,1,,"[0, 1]",True,True,alternative,6.291416666666667,True,Some of the symbols are stars.,"[0, 0, 0]","[0, 0, 0]",3121,Some of the symbols are notes.,"[0, 1]"
0,,1,1,955,undefined,3,filler,"[12, 6, 6]",,1,,0,0,"[14, 6, 8]",,"[3, 2, 6]",Some of the symbols are spades.,0,,"[0, 1]",False,False,alternative,6.291416666666667,False,6 + 8 = ?,"[0, 0, 0]","[9, 0, 0]",3731,6 + 6 = ?,"[1, 0]"
1,,0,0,930,undefined,3,response,"[7, 0, 7]",,1,,0,0,"[8, 2, 6]",,"[5, 0, 6]",Some of the symbols are squares.,1,,"[1, 0]",False,False,alternative,6.291416666666667,False,2 + 6 = ?,"[3, 0, 0]","[9, 0, 0]",2964,0 + 7 = ?,"[0, 1]"
0,,0,0,1297,undefined,1,response,"[2, 5, 3]",,1,,1,0,"[5, 3, 8]",,"[5, 2, 1]",There are four squares.,0,,"[1, 0]",True,True,alternative,6.291416666666667,True,There are four squares.,"[0, 0, 0]","[0, 0, 0]",3233,There are four ticks.,"[1, 0]"
0,,0,0,995,undefined,2,response,"[5, 3, 6]",,1,,2,0,"[0, 9, 4]",,"[4, 0, 8]",There is a heart.,0,,"[1, 0]",True,True,alternative,6.291416666666667,True,There is a diamond and a triangle.,"[0, 0, 0]","[0, 0, 0]",3198,There is a square and a spade.,"[1, 0]"
0,,0,0,1028,undefined,1,response,"[6, 4, 5]",,0,,2,0,"[5, 1, 6]",,"[7, 6, 9]",There is a circle.,0,,"[1, 0]",True,True,alternative,6.291416666666667,True,There is a square.,"[0, 0, 0]","[0, 0, 0]",3723,There is a star.,"[1, 0]"
0,,1,0,1160,undefined,0,response,"[5, 9, 6]",,1,,0,0,"[3, 8, 7]",,"[5, 9, 6]",Some of the symbols are squares.,1,,"[0, 1]",True,True,alternative,6.291416666666667,True,Some of the symbols are spades.,"[0, 0, 0]","[0, 0, 0]",3644,Some of the symbols are squares.,"[1, 0]"
1,,0,1,1288,undefined,0,response,"[1, 5, 9]",,0,,2,0,"[5, 9, 1]",,"[4, 5, 9]",There is a heart.,0,,"[1, 0]",True,True,alternative,6.291416666666667,True,There is a square.,"[0, 0, 0]","[0, 0, 0]",3444,There is a club.,"[0, 1]"
0,,1,0,826,undefined,1,filler,"[4, 7, 0]",,1,,1,0,"[3, 5, 1]",,"[7, 0, 9]",There are four circles.,1,,"[0, 1]",True,True,alternative,6.291416666666667,True,There are four spades.,"[0, 0, 0]","[0, 0, 0]",2513,There are four hearts.,"[1, 0]"
0,,1,0,1357,undefined,2,response,"[3, 6, 2]",,1,,0,0,"[5, 4, 2]",,"[1, 4, 0]",Some of the symbols are clubs.,1,,"[0, 1]",True,True,alternative,6.291416666666667,True,All of the symbols are squares.,"[0, 0, 0]","[0, 0, 0]",3667,All of the symbols are spades.,"[1, 0]"
1,,0,1,1007,undefined,2,response,"[6, 8, 9]",,1,,0,0,"[6, 5, 1]",,"[7, 3, 5]",Some of the symbols are circles.,0,,"[1, 0]",True,True,alternative,6.291416666666667,True,All of the symbols are stars.,"[0, 0, 0]","[0, 0, 0]",3446,All of the symbols are stars.,"[0, 1]"
1,,1,1,894,undefined,1,filler,"[9, 7, 6]",,1,,1,0,"[0, 3, 9]",,"[3, 6, 5]",There are four spades.,1,,"[0, 1]",True,True,alternative,6.291416666666667,True,There are four diamonds.,"[0, 0, 0]","[0, 0, 0]",3110,There are four triangles.,"[0, 1]"
1,,1,1,1079,undefined,1,filler,"[2, 3, 9]",,1,,0,0,"[9, 5, 6]",,"[9, 6, 5]",Some of the symbols are triangles.,1,,"[0, 1]",True,True,alternative,6.291416666666667,True,Some of the symbols are triangles.,"[0, 0, 0]","[0, 0, 0]",3275,Some of the symbols are ticks.,"[0, 1]"
0,,1,0,1309,undefined,0,filler,"[5, 0, 4]",,1,,0,0,"[0, 1, 3]",,"[6, 3, 0]",Some of the symbols are stars.,1,,"[0, 1]",True,True,alternative,6.291416666666667,True,Some of the symbols are diamonds.,"[0, 0, 0]","[0, 0, 0]",3758,Some of the symbols are squares.,"[1, 0]"
1,,1,1,967,undefined,2,filler,"[8, 3, 9]",,1,,0,0,"[6, 4, 9]",,"[0, 8, 2]",Some of the symbols are diamonds.,1,,"[0, 1]",True,True,alternative,6.291416666666667,True,All of the symbols are stars.,"[0, 0, 0]","[0, 0, 0]",2878,All of the symbols are notes.,"[0, 1]"
0,,0,1,1423,undefined,3,filler,"[17, 9, 8]",,1,,1,0,"[6, 1, 5]",,"[3, 9, 7]",There are four spades.,1,,"[1, 0]",False,False,alternative,6.291416666666667,False,1 + 5 = ?,"[6, 0, 0]","[6, 0, 0]",3986,9 + 8 = ?,"[1, 0]"
0,,1,0,1307,undefined,2,filler,"[5, 7, 3]",,1,,0,0,"[8, 6, 3]",,"[1, 3, 7]",Some of the symbols are clubs.,1,,"[0, 1]",True,True,alternative,6.291416666666667,True,All of the symbols are notes.,"[0, 0, 0]","[0, 0, 0]",3243,All of the symbols are squares.,"[1, 0]"
1,,0,1,1017,undefined,0,filler,"[1, 2, 3]",,1,,0,0,"[7, 1, 0]",,"[3, 6, 1]",Some of the symbols are spades.,0,,"[1, 0]",True,True,alternative,6.291416666666667,True,Some of the symbols are circles.,"[0, 0, 0]","[0, 0, 0]",3452,Some of the symbols are clubs.,"[0, 1]"
0,,0,0,1274,undefined,2,response,"[7, 1, 8]",,1,,1,0,"[0, 1, 6]",,"[3, 4, 6]",There are four spades.,0,,"[1, 0]",True,True,alternative,6.291416666666667,True,There are six diamonds.,"[0, 0, 0]","[0, 0, 0]",3248,There are six circles.,"[1, 0]"
1,,0,1,1157,undefined,0,response,"[7, 6, 5]",,1,,0,0,"[2, 8, 5]",,"[6, 1, 9]",Some of the symbols are stars.,0,,"[1, 0]",True,True,alternative,6.291416666666667,True,Some of the symbols are ticks.,"[0, 0, 0]","[0, 0, 0]",3849,Some of the symbols are circles.,"[0, 1]"
0,,1,1,920,undefined,3,response,"[3, 2, 1]",,1,,0,0,"[11, 8, 3]",,"[2, 4, 6]",Some of the symbols are ticks.,0,,"[0, 1]",False,False,alternative,6.291416666666667,False,8 + 3 = ?,"[0, 0, 0]","[2, 0, 0]",3043,2 + 1 = ?,"[1, 0]"
1,,1,1,909,undefined,0,filler,"[7, 4, 9]",,1,,1,0,"[0, 4, 8]",,"[6, 8, 4]",There are four stars.,1,,"[0, 1]",True,True,alternative,6.291416666666667,True,There are four diamonds.,"[0, 0, 0]","[0, 0, 0]",2650,There are four circles.,"[0, 1]"
1,,0,1,1059,undefined,2,response,"[0, 2, 5]",,1,,1,0,"[2, 4, 3]",,"[2, 7, 1]",There are four ticks.,0,,"[1, 0]",True,True,alternative,6.291416666666667,True,There are six ticks.,"[0, 0, 0]","[0, 0, 0]",3000,There are six diamonds.,"[0, 1]"
0,,0,1,813,undefined,3,filler,"[6, 5, 1]",,1,,0,0,"[14, 6, 8]",,"[8, 7, 2]",Some of the symbols are notes.,0,,"[1, 0]",False,True,alternative,6.291416666666667,False,6 + 8 = ?,"[8, 0, 0]","[3, 0, 0]",3518,5 + 1 = ?,"[1, 0]"
0,,0,1,864,undefined,3,response,"[15, 6, 9]",,1,,1,0,"[5, 5, 0]",,"[5, 8, 0]",There are four squares.,0,,"[1, 0]",False,True,alternative,6.291416666666667,False,5 + 0 = ?,"[6, 0, 0]","[6, 0, 0]",3299,6 + 9 = ?,"[1, 0]"
1,,1,1,1372,undefined,3,response,"[9, 2, 7]",,0,,2,0,"[16, 9, 7]",,"[5, 9, 7]",There is a square.,0,,"[0, 1]",False,False,alternative,6.291416666666667,True,9 + 7 = ?,"[6, 0, 0]","[4, 0, 0]",3848,2 + 7 = ?,"[0, 1]"
0,,1,0,769,undefined,2,filler,"[5, 2, 0]",,1,,1,0,"[5, 3, 4]",,"[3, 2, 4]",There are four spades.,1,,"[0, 1]",True,True,alternative,6.291416666666667,True,There are six squares.,"[0, 0, 0]","[0, 0, 0]",2569,There are six squares.,"[1, 0]"
1,,0,1,1119,undefined,0,filler,"[5, 8, 4]",,1,,2,0,"[3, 4, 1]",,"[6, 5, 7]",There is a star.,0,,"[1, 0]",True,True,alternative,6.291416666666667,True,There is a spade.,"[0, 0, 0]","[0, 0, 0]",3990,There is a square.,"[0, 1]"
1,,1,1,806,undefined,0,response,"[4, 7, 5]",,1,,0,0,"[4, 8, 2]",,"[6, 9, 1]",Some of the symbols are stars.,1,,"[0, 1]",True,True,alternative,6.291416666666667,True,Some of the symbols are hearts.,"[0, 0, 0]","[0, 0, 0]",3144,Some of the symbols are hearts.,"[0, 1]"
0,,1,0,1118,undefined,2,filler,"[5, 0, 7]",,1,,2,0,"[7, 5, 9]",,"[3, 7, 1]",There is a spade.,1,,"[0, 1]",True,True,alternative,6.291416666666667,True,There is a circle and a square.,"[0, 0, 0]","[0, 0, 0]",3665,There is a square and a diamond.,"[1, 0]"
0,,1,0,839,undefined,0,response,"[2, 7, 5]",,1,,0,0,"[7, 8, 2]",,"[8, 7, 4]",Some of the symbols are notes.,1,,"[0, 1]",True,True,alternative,6.291416666666667,True,Some of the symbols are circles.,"[0, 0, 0]","[0, 0, 0]",3076,Some of the symbols are ticks.,"[1, 0]"
0,,0,0,706,undefined,1,filler,"[0, 4, 2]",,1,,1,0,"[6, 8, 9]",,"[5, 7, 6]",There are four squares.,0,,"[1, 0]",True,True,alternative,6.291416666666667,True,There are four stars.,"[0, 0, 0]","[0, 0, 0]",2969,There are four diamonds.,"[1, 0]"
1,,0,1,1008,undefined,0,response,"[0, 1, 5]",,0,,2,0,"[3, 4, 2]",,"[4, 7, 0]",There is a heart.,0,,"[1, 0]",True,True,alternative,6.291416666666667,True,There is a spade.,"[0, 0, 0]","[0, 0, 0]",3251,There is a diamond.,"[0, 1]"
1,,1,1,882,undefined,0,response,"[6, 5, 1]",,0,,1,0,"[2, 1, 6]",,"[3, 6, 2]",There are four spades.,1,,"[0, 1]",True,True,alternative,6.291416666666667,True,There are four ticks.,"[0, 0, 0]","[0, 0, 0]",2703,There are four stars.,"[0, 1]"
0,,1,0,821,undefined,1,filler,"[2, 4, 0]",,1,,2,0,"[7, 6, 3]",,"[4, 0, 2]",There is a heart.,1,,"[0, 1]",True,True,alternative,6.291416666666667,True,There is a circle.,"[0, 0, 0]","[0, 0, 0]",2826,There is a tick.,"[1, 0]"
0,,0,0,1483,undefined,0,response,"[7, 2, 1]",,0,,2,0,"[3, 0, 1]",,"[6, 5, 0]",There is a star.,0,,"[1, 0]",True,True,alternative,6.291416666666667,True,There is a spade.,"[0, 0, 0]","[0, 0, 0]",4536,There is a circle.,"[1, 0]"
0,,0,0,993,undefined,3,filler,"[4, 1, 3]",,1,,2,0,"[5, 4, 1]",,"[7, 0, 9]",There is a circle.,1,,"[1, 0]",False,False,alternative,6.291416666666667,True,4 + 1 = ?,"[3, 0, 0]","[3, 0, 0]",2935,1 + 3 = ?,"[1, 0]"
1,,1,1,829,undefined,1,filler,"[1, 0, 8]",,1,,0,0,"[6, 9, 5]",,"[2, 4, 0]",Some of the symbols are ticks.,1,,"[0, 1]",True,True,alternative,6.291416666666667,True,Some of the symbols are stars.,"[0, 0, 0]","[0, 0, 0]",3219,Some of the symbols are clubs.,"[0, 1]"
1,,1,1,1331,undefined,1,response,"[2, 1, 5]",,0,,2,0,"[4, 2, 7]",,"[1, 8, 3]",There is a club.,1,,"[0, 1]",True,True,alternative,6.291416666666667,True,There is a heart.,"[0, 0, 0]","[0, 0, 0]",3090,There is a tick.,"[0, 1]"
1,,1,0,957,undefined,3,filler,"[10, 7, 3]",,1,,0,0,"[6, 1, 5]",,"[6, 8, 0]",Some of the symbols are stars.,1,,"[0, 1]",False,True,alternative,6.291416666666667,False,1 + 5 = ?,"[8, 0, 0]","[1, 0, 0]",4029,7 + 3 = ?,"[0, 1]"
1,,0,1,931,undefined,2,filler,"[5, 1, 4]",,1,,1,0,"[3, 7, 0]",,"[3, 6, 5]",There are four spades.,0,,"[1, 0]",True,True,alternative,6.291416666666667,True,There are six spades.,"[0, 0, 0]","[0, 0, 0]",2684,There are six squares.,"[0, 1]"
1,,1,1,2536,undefined,1,response,"[8, 3, 1]",,1,,0,0,"[3, 0, 1]",,"[3, 0, 2]",Some of the symbols are spades.,1,,"[0, 1]",True,True,alternative,6.291416666666667,True,Some of the symbols are spades.,"[0, 0, 0]","[0, 0, 0]",5373,Some of the symbols are notes.,"[0, 1]"
1,,0,1,959,undefined,0,filler,"[4, 6, 1]",,1,,2,0,"[4, 3, 9]",,"[6, 3, 1]",There is a star.,0,,"[1, 0]",True,True,alternative,6.291416666666667,True,There is a heart.,"[0, 0, 0]","[0, 0, 0]",3480,There is a heart.,"[0, 1]"
,"[0, 'Linda']",,,,undefined,,,,bot_check,,Linda,,1,,,,,,1,,,,,2.2882333333333333,,,,,,,
1,,0,1,148,undefined,1,response,"[7, 1, 2]",,1,,0,1,"[1, 3, 6]",,"[9, 0, 6]",Some of the symbols are triangles.,1,,"[1, 0]",False,False,alternative,2.2882333333333333,True,Some of the symbols are clubs.,"[0, 0, 0]","[0, 0, 0]",458,Some of the symbols are circles.,"[0, 1]"
0,,1,0,0,undefined,1,response,"[0, 4, 8]",,0,,2,1,"[5, 3, 7]",,"[8, 4, 1]",There is a note.,0,,"[0, 1]",False,False,alternative,2.2882333333333333,True,There is a square.,"[0, 0, 0]","[0, 0, 0]",459,There is a diamond.,"[1, 0]"
1,,1,0,173,undefined,2,filler,"[2, 8, 5]",,1,,2,1,"[7, 8, 2]",,"[8, 4, 9]",There is a note.,0,,"[0, 1]",False,False,alternative,2.2882333333333333,False,There is a circle and a note.,"[0, 0, 0]","[0, 0, 0]",443,There is a tick and a note.,"[0, 1]"
1,,0,1,141,undefined,2,response,"[0, 1, 3]",,1,,1,1,"[1, 8, 3]",,"[5, 3, 4]",There are four squares.,1,,"[1, 0]",False,False,alternative,2.2882333333333333,True,There are six clubs.,"[0, 0, 0]","[0, 0, 0]",485,There are six diamonds.,"[0, 1]"
0,,1,1,159,undefined,0,filler,"[9, 2, 3]",,1,,1,1,"[5, 2, 4]",,"[4, 5, 6]",There are four hearts.,1,,"[0, 1]",False,True,alternative,2.2882333333333333,False,There are four squares.,"[0, 0, 0]","[0, 0, 0]",491,There are four triangles.,"[1, 0]"
1,,1,1,121,undefined,3,response,"[8, 7, 1]",,1,,1,1,"[10, 5, 5]",,"[0, 7, 3]",There are four diamonds.,1,,"[0, 1]",True,True,alternative,2.2882333333333333,True,5 + 5 = ?,"[4, 0, 0]","[5, 0, 0]",501,7 + 1 = ?,"[0, 1]"
1,,0,0,169,undefined,3,filler,"[8, 8, 0]",,0,,1,1,"[0, 0, 0]",,"[5, 3, 2]",There are four squares.,0,,"[1, 0]",False,True,alternative,2.2882333333333333,False,0 + 0 = ?,"[3, 0, 0]","[0, 0, 0]",546,8 + 0 = ?,"[0, 1]"
1,,1,0,179,undefined,0,filler,"[0, 8, 3]",,0,,1,1,"[7, 0, 3]",,"[9, 4, 1]",There are four triangles.,0,,"[0, 1]",False,False,alternative,2.2882333333333333,False,There are four circles.,"[0, 0, 0]","[0, 0, 0]",540,There are four diamonds.,"[0, 1]"
1,,0,0,105,undefined,1,filler,"[5, 2, 7]",,0,,1,1,"[6, 3, 4]",,"[9, 6, 8]",There are four triangles.,0,,"[1, 0]",False,True,alternative,2.2882333333333333,False,There are four stars.,"[0, 0, 0]","[0, 0, 0]",474,There are four squares.,"[0, 1]"
1,,1,0,150,undefined,0,filler,"[8, 4, 5]",,0,,0,1,"[1, 9, 2]",,"[7, 5, 4]",Some of the symbols are circles.,0,,"[0, 1]",False,False,alternative,2.2882333333333333,False,Some of the symbols are clubs.,"[0, 0, 0]","[0, 0, 0]",539,Some of the symbols are notes.,"[0, 1]"
0,,1,1,198,undefined,1,filler,"[5, 0, 1]",,1,,1,1,"[4, 9, 3]",,"[4, 2, 1]",There are four hearts.,0,,"[0, 1]",False,False,alternative,2.2882333333333333,False,There are four hearts.,"[0, 0, 0]","[0, 0, 0]",669,There are four squares.,"[1, 0]"
1,,1,1,172,undefined,3,filler,"[8, 4, 4]",,1,,2,1,"[14, 7, 7]",,"[9, 1, 4]",There is a triangle.,1,,"[0, 1]",True,True,alternative,2.2882333333333333,True,7 + 7 = ?,"[0, 0, 0]","[6, 0, 0]",515,4 + 4 = ?,"[0, 1]"
0,,1,1,287,undefined,2,filler,"[3, 1, 7]",,0,,2,1,"[2, 7, 5]",,"[5, 6, 0]",There is a square.,1,,"[0, 1]",False,True,alternative,2.2882333333333333,False,There is a tick and a circle.,"[0, 0, 0]","[0, 0, 0]",542,There is a spade and a club.,"[1, 0]"
0,,0,1,174,undefined,3,response,"[7, 0, 7]",,1,,2,1,"[7, 1, 6]",,"[5, 4, 6]",There is a square.,1,,"[1, 0]",False,False,alternative,2.2882333333333333,False,1 + 6 = ?,"[6, 0, 0]","[1, 0, 0]",571,0 + 7 = ?,"[1, 0]"
1,,0,0,192,undefined,2,filler,"[1, 9, 7]",,0,,2,1,"[9, 6, 4]",,"[6, 0, 8]",There is a star.,1,,"[1, 0]",False,False,alternative,2.2882333333333333,False,There is a triangle and a star.,"[0, 0, 0]","[0, 0, 0]",563,There is a club and a triangle.,"[0, 1]"
1,,1,0,173,undefined,0,response,"[3, 0, 8]",,0,,1,1,"[6, 3, 9]",,"[9, 6, 7]",There are four triangles.,0,,"[0, 1]",False,False,alternative,2.2882333333333333,False,There are four stars.,"[0, 0, 0]","[0, 0, 0]",501,There are four spades.,"[0, 1]"
0,,0,0,207,undefined,3,filler,"[12, 7, 5]",,0,,1,1,"[5, 5, 0]",,"[4, 0, 3]",There are four hearts.,0,,"[1, 0]",True,True,alternative,2.2882333333333333,True,5 + 0 = ?,"[6, 0, 0]","[2, 0, 0]",557,7 + 5 = ?,"[1, 0]"
0,,1,0,164,undefined,0,response,"[0, 8, 3]",,0,,1,1,"[3, 9, 4]",,"[8, 6, 5]",There are four notes.,0,,"[0, 1]",False,False,alternative,2.2882333333333333,True,There are four spades.,"[0, 0, 0]","[0, 0, 0]",535,There are four diamonds.,"[1, 0]"
0,,1,0,194,undefined,3,response,"[2, 2, 0]",,0,,2,1,"[11, 2, 9]",,"[7, 3, 8]",There is a circle.,0,,"[0, 1]",False,False,alternative,2.2882333333333333,True,2 + 9 = ?,"[1, 0, 0]","[9, 0, 0]",3588,2 + 0 = ?,"[1, 0]"
0,,0,0,160,undefined,3,response,"[10, 8, 2]",,0,,0,1,"[12, 8, 4]",,"[7, 0, 6]",Some of the symbols are circles.,1,,"[1, 0]",False,False,alternative,2.2882333333333333,True,8 + 4 = ?,"[4, 0, 0]","[0, 0, 0]",675,8 + 2 = ?,"[1, 0]"
0,,0,0,166,undefined,3,response,"[7, 7, 0]",,0,,2,1,"[10, 6, 4]",,"[0, 2, 6]",There is a diamond.,0,,"[1, 0]",True,True,alternative,2.2882333333333333,True,6 + 4 = ?,"[7, 0, 0]","[4, 0, 0]",504,7 + 0 = ?,"[1, 0]"
0,,0,0,156,undefined,2,response,"[3, 5, 9]",,0,,2,1,"[3, 2, 9]",,"[7, 8, 2]",There is a circle.,0,,"[1, 0]",True,True,alternative,2.2882333333333333,True,There is a spade and a tick.,"[0, 0, 0]","[0, 0, 0]",505,There is a spade and a square.,"[1, 0]"
1,,1,1,147,undefined,2,response,"[8, 6, 7]",,1,,2,1,"[0, 2, 5]",,"[4, 6, 5]",There is a heart.,0,,"[0, 1]",False,False,alternative,2.2882333333333333,True,There is a diamond and a tick.,"[0, 0, 0]","[0, 0, 0]",443,There is a note and a star.,"[0, 1]"
0,,0,1,177,undefined,2,filler,"[6, 5, 7]",,1,,0,1,"[2, 9, 1]",,"[2, 3, 7]",Some of the symbols are ticks.,1,,"[1, 0]",False,False,alternative,2.2882333333333333,False,All of the symbols are ticks.,"[0, 0, 0]","[0, 0, 0]",500,All of the symbols are stars.,"[1, 0]"
1,,0,1,182,undefined,0,filler,"[4, 3, 0]",,1,,2,1,"[6, 0, 2]",,"[6, 4, 7]",There is a star.,1,,"[1, 0]",False,False,alternative,2.2882333333333333,True,There is a star.,"[0, 0, 0]","[0, 0, 0]",508,There is a heart.,"[0, 1]"
1,,0,1,174,undefined,2,response,"[7, 4, 3]",,1,,0,1,"[2, 0, 8]",,"[9, 4, 0]",Some of the symbols are triangles.,1,,"[1, 0]",False,False,alternative,2.2882333333333333,True,All of the symbols are ticks.,"[0, 0, 0]","[0, 0, 0]",544,All of the symbols are circles.,"[0, 1]"
0,,1,1,193,undefined,1,filler,"[6, 4, 1]",,1,,2,1,"[6, 0, 3]",,"[3, 6, 7]",There is a spade.,1,,"[0, 1]",False,True,alternative,2.2882333333333333,False,There is a star.,"[0, 0, 0]","[0, 0, 0]",607,There is a star.,"[1, 0]"
1,,0,0,173,undefined,2,filler,"[8, 6, 0]",,0,,0,1,"[7, 1, 6]",,"[0, 2, 1]",Some of the symbols are diamonds.,0,,"[1, 0]",False,True,alternative,2.2882333333333333,False,All of the symbols are circles.,"[0, 0, 0]","[0, 0, 0]",554,All of the symbols are notes.,"[0, 1]"
0,,0,0,198,undefined,3,response,"[16, 7, 9]",,0,,0,1,"[12, 9, 3]",,"[9, 4, 7]",Some of the symbols are triangles.,0,,"[1, 0]",True,True,alternative,2.2882333333333333,True,9 + 3 = ?,"[6, 0, 0]","[3, 0, 0]",596,7 + 9 = ?,"[1, 0]"
0,,1,0,184,undefined,3,filler,"[17, 8, 9]",,0,,0,1,"[11, 3, 8]",,"[9, 3, 4]",Some of the symbols are triangles.,0,,"[0, 1]",False,False,alternative,2.2882333333333333,True,3 + 8 = ?,"[4, 0, 0]","[0, 0, 0]",609,8 + 9 = ?,"[1, 0]"
1,,1,0,220,undefined,2,response,"[8, 7, 4]",,0,,0,1,"[3, 0, 1]",,"[9, 2, 4]",Some of the symbols are triangles.,0,,"[0, 1]",False,False,alternative,2.2882333333333333,False,All of the symbols are spades.,"[0, 0, 0]","[0, 0, 0]",910,All of the symbols are notes.,"[0, 1]"
0,,1,1,173,undefined,0,response,"[5, 2, 0]",,0,,2,1,"[2, 9, 1]",,"[6, 2, 5]",There is a star.,1,,"[0, 1]",False,True,alternative,2.2882333333333333,False,There is a tick.,"[0, 0, 0]","[0, 0, 0]",979,There is a square.,"[1, 0]"
1,,0,0,201,undefined,3,response,"[17, 9, 8]",,0,,2,1,"[6, 0, 6]",,"[7, 2, 4]",There is a circle.,0,,"[1, 0]",False,True,alternative,2.2882333333333333,False,0 + 6 = ?,"[2, 0, 0]","[5, 0, 0]",605,9 + 8 = ?,"[0, 1]"
0,,0,1,227,undefined,3,response,"[6, 5, 1]",,1,,1,1,"[7, 0, 7]",,"[0, 7, 9]",There are four diamonds.,1,,"[1, 0]",False,False,alternative,2.2882333333333333,False,0 + 7 = ?,"[1, 0, 0]","[1, 0, 0]",790,5 + 1 = ?,"[1, 0]"
1,,0,1,211,undefined,1,response,"[3, 0, 7]",,1,,1,1,"[0, 6, 4]",,"[2, 5, 6]",There are four ticks.,1,,"[1, 0]",False,False,alternative,2.2882333333333333,True,There are four diamonds.,"[0, 0, 0]","[0, 0, 0]",643,There are four spades.,"[0, 1]"
1,,1,0,200,undefined,2,response,"[1, 2, 5]",,0,,1,1,"[4, 3, 6]",,"[7, 0, 8]",There are four circles.,1,,"[0, 1]",False,True,alternative,2.2882333333333333,False,There are six hearts.,"[0, 0, 0]","[0, 0, 0]",615,There are six clubs.,"[0, 1]"
1,,1,0,218,undefined,1,response,"[3, 8, 2]",,1,,1,1,"[1, 4, 3]",,"[3, 7, 2]",There are four spades.,0,,"[0, 1]",False,False,alternative,2.2882333333333333,False,There are four clubs.,"[0, 0, 0]","[0, 0, 0]",628,There are four spades.,"[0, 1]"
0,,1,1,217,undefined,0,response,"[5, 4, 6]",,1,,2,1,"[2, 9, 0]",,"[4, 7, 9]",There is a heart.,1,,"[0, 1]",False,True,alternative,2.2882333333333333,False,There is a tick.,"[0, 0, 0]","[0, 0, 0]",704,There is a square.,"[1, 0]"
1,,0,0,189,undefined,2,response,"[5, 4, 7]",,0,,1,1,"[1, 5, 6]",,"[0, 8, 6]",There are four diamonds.,0,,"[1, 0]",False,True,alternative,2.2882333333333333,False,There are six clubs.,"[0, 0, 0]","[0, 0, 0]",602,There are six squares.,"[0, 1]"
1,,1,0,205,undefined,2,filler,"[3, 1, 5]",,0,,1,1,"[0, 6, 4]",,"[9, 1, 6]",There are four triangles.,1,,"[0, 1]",False,True,alternative,2.2882333333333333,False,There are six diamonds.,"[0, 0, 0]","[0, 0, 0]",640,There are six spades.,"[0, 1]"
1,,0,0,242,undefined,3,response,"[13, 6, 7]",,0,,0,1,"[14, 9, 5]",,"[9, 4, 6]",Some of the symbols are triangles.,0,,"[1, 0]",False,True,alternative,2.2882333333333333,False,9 + 5 = ?,"[6, 0, 0]","[8, 0, 0]",701,6 + 7 = ?,"[0, 1]"
1,,0,0,240,undefined,0,filler,"[0, 5, 2]",,0,,2,1,"[5, 2, 4]",,"[6, 3, 1]",There is a star.,1,,"[1, 0]",False,False,alternative,2.2882333333333333,False,There is a square.,"[0, 0, 0]","[0, 0, 0]",715,There is a diamond.,"[0, 1]"
0,,0,1,211,undefined,2,filler,"[5, 3, 2]",,1,,0,1,"[0, 8, 1]",,"[0, 6, 9]",Some of the symbols are diamonds.,0,,"[1, 0]",False,True,alternative,2.2882333333333333,False,All of the symbols are diamonds.,"[0, 0, 0]","[0, 0, 0]",949,All of the symbols are squares.,"[1, 0]"
1,,1,1,234,undefined,2,filler,"[3, 5, 2]",,1,,0,1,"[1, 6, 9]",,"[0, 3, 4]",Some of the symbols are diamonds.,1,,"[0, 1]",True,True,alternative,2.2882333333333333,True,All of the symbols are clubs.,"[0, 0, 0]","[0, 0, 0]",675,All of the symbols are spades.,"[0, 1]"
1,,0,1,133,undefined,3,filler,"[15, 7, 8]",,0,,2,1,"[4, 1, 3]",,"[4, 6, 1]",There is a heart.,1,,"[1, 0]",False,False,alternative,2.2882333333333333,True,1 + 3 = ?,"[3, 0, 0]","[7, 0, 0]",846,7 + 8 = ?,"[0, 1]"
1,,0,0,208,undefined,2,filler,"[5, 0, 1]",,0,,1,1,"[1, 4, 0]",,"[8, 6, 9]",There are four notes.,0,,"[1, 0]",False,True,alternative,2.2882333333333333,False,There are six clubs.,"[0, 0, 0]","[0, 0, 0]",628,There are six squares.,"[0, 1]"
1,,0,0,279,undefined,0,response,"[7, 1, 3]",,0,,2,1,"[1, 6, 2]",,"[0, 2, 3]",There is a diamond.,0,,"[1, 0]",False,True,alternative,2.2882333333333333,False,There is a club.,"[0, 0, 0]","[0, 0, 0]",640,There is a circle.,"[0, 1]"
1,,0,1,194,undefined,1,response,"[0, 4, 5]",,1,,2,1,"[2, 1, 0]",,"[6, 5, 9]",There is a star.,0,,"[1, 0]",True,True,alternative,2.2882333333333333,True,There is a tick.,"[0, 0, 0]","[0, 0, 0]",625,There is a diamond.,"[0, 1]"
0,,1,1,295,undefined,1,filler,"[4, 1, 2]",,1,,1,1,"[8, 2, 7]",,"[5, 2, 1]",There are four squares.,1,,"[0, 1]",False,True,alternative,2.2882333333333333,False,There are four notes.,"[0, 0, 0]","[0, 0, 0]",761,There are four hearts.,"[1, 0]"
0,,0,1,193,undefined,0,filler,"[0, 1, 6]",,1,,1,1,"[9, 5, 7]",,"[0, 7, 3]",There are four diamonds.,1,,"[1, 0]",False,False,alternative,2.2882333333333333,False,There are four triangles.,"[0, 0, 0]","[0, 0, 0]",444,There are four diamonds.,"[1, 0]"
1,,0,0,203,undefined,2,response,"[3, 9, 5]",,0,,0,1,"[3, 4, 7]",,"[0, 9, 5]",Some of the symbols are diamonds.,0,,"[1, 0]",False,True,alternative,2.2882333333333333,False,All of the symbols are spades.,"[0, 0, 0]","[0, 0, 0]",629,All of the symbols are spades.,"[0, 1]"
1,,1,0,241,undefined,2,response,"[3, 1, 5]",,0,,1,1,"[3, 2, 0]",,"[0, 3, 6]",There are four diamonds.,1,,"[0, 1]",False,True,alternative,2.2882333333333333,False,There are six spades.,"[0, 0, 0]","[0, 0, 0]",686,There are six spades.,"[0, 1]"
1,,1,0,206,undefined,0,filler,"[9, 0, 1]",,1,,1,1,"[6, 9, 8]",,"[0, 1, 3]",There are four diamonds.,1,,"[0, 1]",False,True,alternative,2.2882333333333333,False,There are four stars.,"[0, 0, 0]","[0, 0, 0]",628,There are four triangles.,"[0, 1]"
0,,1,0,214,undefined,1,response,"[6, 4, 3]",,0,,1,1,"[6, 3, 8]",,"[6, 7, 4]",There are four stars.,0,,"[0, 1]",False,False,alternative,2.2882333333333333,True,There are four stars.,"[0, 0, 0]","[0, 0, 0]",663,There are four stars.,"[1, 0]"
0,,0,1,256,undefined,1,filler,"[4, 7, 6]",,0,,2,1,"[9, 6, 8]",,"[2, 8, 6]",There is a tick.,0,,"[1, 0]",False,True,alternative,2.2882333333333333,False,There is a triangle.,"[0, 0, 0]","[0, 0, 0]",701,There is a heart.,"[1, 0]"
0,,1,1,201,undefined,1,filler,"[6, 2, 3]",,1,,2,1,"[8, 2, 1]",,"[7, 1, 9]",There is a circle.,1,,"[0, 1]",False,True,alternative,2.2882333333333333,False,There is a note.,"[0, 0, 0]","[0, 0, 0]",706,There is a star.,"[1, 0]"
1,,0,1,283,undefined,2,response,"[2, 6, 3]",,1,,2,1,"[2, 4, 7]",,"[2, 0, 8]",There is a tick.,1,,"[1, 0]",False,False,alternative,2.2882333333333333,True,There is a tick and a heart.,"[0, 0, 0]","[0, 0, 0]",730,There is a tick and a star.,"[0, 1]"
1,,0,1,201,undefined,0,filler,"[2, 0, 9]",,1,,0,1,"[4, 0, 7]",,"[7, 6, 1]",Some of the symbols are circles.,1,,"[1, 0]",False,False,alternative,2.2882333333333333,True,Some of the symbols are hearts.,"[0, 0, 0]","[0, 0, 0]",620,Some of the symbols are ticks.,"[0, 1]"
0,,0,1,235,undefined,0,filler,"[6, 1, 8]",,1,,0,1,"[9, 8, 6]",,"[1, 2, 6]",Some of the symbols are clubs.,1,,"[1, 0]",False,False,alternative,2.2882333333333333,False,Some of the symbols are triangles.,"[0, 0, 0]","[0, 0, 0]",663,Some of the symbols are stars.,"[1, 0]"
1,,1,1,220,undefined,1,filler,"[0, 4, 3]",,1,,0,1,"[2, 5, 0]",,"[0, 5, 4]",Some of the symbols are diamonds.,1,,"[0, 1]",True,True,alternative,2.2882333333333333,True,Some of the symbols are ticks.,"[0, 0, 0]","[0, 0, 0]",653,Some of the symbols are diamonds.,"[0, 1]"
1,,1,1,208,undefined,3,filler,"[14, 7, 7]",,1,,2,1,"[11, 4, 7]",,"[6, 8, 1]",There is a star.,1,,"[0, 1]",True,True,alternative,2.2882333333333333,True,4 + 7 = ?,"[2, 0, 0]","[7, 0, 0]",649,7 + 7 = ?,"[0, 1]"
0,,0,1,209,undefined,0,response,"[9, 0, 3]",,1,,0,1,"[2, 9, 6]",,"[2, 9, 0]",Some of the symbols are ticks.,1,,"[1, 0]",False,False,alternative,2.2882333333333333,False,Some of the symbols are ticks.,"[0, 0, 0]","[0, 0, 0]",647,Some of the symbols are triangles.,"[1, 0]"
1,,1,0,272,undefined,1,response,"[1, 7, 6]",,1,,0,1,"[3, 6, 1]",,"[4, 0, 7]",Some of the symbols are hearts.,0,,"[0, 1]",False,False,alternative,2.2882333333333333,False,Some of the symbols are spades.,"[0, 0, 0]","[0, 0, 0]",730,Some of the symbols are clubs.,"[0, 1]"
0,,0,0,208,undefined,3,response,"[6, 3, 3]",,0,,1,1,"[8, 2, 6]",,"[5, 7, 3]",There are four squares.,0,,"[1, 0]",True,True,alternative,2.2882333333333333,True,2 + 6 = ?,"[0, 0, 0]","[9, 0, 0]",632,3 + 3 = ?,"[1, 0]"
0,,1,1,223,undefined,3,filler,"[3, 3, 0]",,1,,1,1,"[3, 2, 1]",,"[7, 1, 5]",There are four circles.,0,,"[0, 1]",False,False,alternative,2.2882333333333333,False,2 + 1 = ?,"[6, 0, 0]","[7, 0, 0]",1005,3 + 0 = ?,"[1, 0]"
0,,1,0,210,undefined,3,filler,"[10, 8, 2]",,0,,1,1,"[10, 1, 9]",,"[7, 0, 2]",There are four circles.,0,,"[0, 1]",False,False,alternative,2.2882333333333333,True,1 + 9 = ?,"[2, 0, 0]","[1, 0, 0]",660,8 + 2 = ?,"[1, 0]"
0,,0,1,264,undefined,0,filler,"[8, 0, 7]",,0,,2,1,"[9, 3, 1]",,"[5, 1, 3]",There is a square.,0,,"[1, 0]",False,True,alternative,2.2882333333333333,False,There is a triangle.,"[0, 0, 0]","[0, 0, 0]",688,There is a note.,"[1, 0]"
0,,1,0,193,undefined,0,response,"[7, 8, 0]",,1,,2,1,"[2, 7, 8]",,"[0, 9, 6]",There is a diamond.,0,,"[0, 1]",False,False,alternative,2.2882333333333333,True,There is a tick.,"[0, 0, 0]","[0, 0, 0]",645,There is a circle.,"[1, 0]"
0,,0,0,213,undefined,1,filler,"[4, 0, 9]",,0,,0,1,"[2, 5, 8]",,"[6, 4, 5]",Some of the symbols are stars.,1,,"[1, 0]",False,False,alternative,2.2882333333333333,True,Some of the symbols are ticks.,"[0, 0, 0]","[0, 0, 0]",674,Some of the symbols are hearts.,"[1, 0]"
1,,0,1,230,undefined,1,filler,"[8, 9, 6]",,1,,0,1,"[5, 6, 2]",,"[0, 3, 7]",Some of the symbols are diamonds.,0,,"[1, 0]",True,True,alternative,2.2882333333333333,True,Some of the symbols are squares.,"[0, 0, 0]","[0, 0, 0]",639,Some of the symbols are notes.,"[0, 1]"
1,,0,1,223,undefined,0,response,"[4, 9, 2]",,1,,1,1,"[0, 9, 1]",,"[5, 8, 2]",There are four squares.,0,,"[1, 0]",True,True,alternative,2.2882333333333333,True,There are four diamonds.,"[0, 0, 0]","[0, 0, 0]",675,There are four hearts.,"[0, 1]"
0,,0,1,223,undefined,0,filler,"[2, 0, 5]",,1,,2,1,"[2, 7, 5]",,"[4, 6, 0]",There is a heart.,1,,"[1, 0]",False,False,alternative,2.2882333333333333,False,There is a tick.,"[0, 0, 0]","[0, 0, 0]",614,There is a tick.,"[1, 0]"
1,,0,1,199,undefined,1,filler,"[4, 2, 6]",,0,,2,1,"[1, 3, 6]",,"[6, 2, 7]",There is a star.,1,,"[1, 0]",False,False,alternative,2.2882333333333333,True,There is a club.,"[0, 0, 0]","[0, 0, 0]",608,There is a heart.,"[0, 1]"
1,,1,0,203,undefined,1,filler,"[4, 1, 8]",,0,,1,1,"[9, 2, 0]",,"[8, 7, 3]",There are four notes.,0,,"[0, 1]",False,False,alternative,2.2882333333333333,False,There are four triangles.,"[0, 0, 0]","[0, 0, 0]",609,There are four hearts.,"[0, 1]"
0,,0,0,217,undefined,3,filler,"[9, 8, 1]",,0,,0,1,"[5, 5, 0]",,"[6, 1, 3]",Some of the symbols are stars.,1,,"[1, 0]",False,False,alternative,2.2882333333333333,True,5 + 0 = ?,"[2, 0, 0]","[1, 0, 0]",1368,8 + 1 = ?,"[1, 0]"
0,,1,0,189,undefined,2,response,"[2, 9, 5]",,0,,2,1,"[5, 7, 1]",,"[4, 9, 6]",There is a heart.,0,,"[0, 1]",False,False,alternative,2.2882333333333333,True,There is a square and a circle.,"[0, 0, 0]","[0, 0, 0]",607,There is a tick and a triangle.,"[1, 0]"
1,,1,0,422,undefined,1,response,"[5, 7, 2]",,0,,0,1,"[9, 5, 7]",,"[4, 9, 2]",Some of the symbols are hearts.,0,,"[0, 1]",False,False,alternative,2.2882333333333333,False,Some of the symbols are triangles.,"[0, 0, 0]","[0, 0, 0]",805,Some of the symbols are squares.,"[0, 1]"
0,,1,0,173,undefined,0,response,"[2, 0, 3]",,0,,0,1,"[4, 3, 7]",,"[7, 2, 9]",Some of the symbols are circles.,0,,"[0, 1]",False,False,alternative,2.2882333333333333,True,Some of the symbols are hearts.,"[0, 0, 0]","[0, 0, 0]",551,Some of the symbols are ticks.,"[1, 0]"
0,,0,0,205,undefined,0,response,"[0, 7, 2]",,0,,1,1,"[6, 3, 7]",,"[4, 3, 7]",There are four hearts.,0,,"[1, 0]",True,True,alternative,2.2882333333333333,True,There are four stars.,"[0, 0, 0]","[0, 0, 0]",626,There are four diamonds.,"[1, 0]"
1,,1,0,229,undefined,3,response,"[10, 5, 5]",,0,,1,1,"[7, 3, 4]",,"[7, 5, 1]",There are four circles.,0,,"[0, 1]",False,False,alternative,2.2882333333333333,False,3 + 4 = ?,"[9, 0, 0]","[3, 0, 0]",643,5 + 5 = ?,"[0, 1]"
0,,0,0,252,undefined,1,filler,"[7, 2, 0]",,0,,0,1,"[1, 4, 5]",,"[2, 5, 3]",Some of the symbols are ticks.,0,,"[1, 0]",True,True,alternative,2.2882333333333333,True,Some of the symbols are clubs.,"[0, 0, 0]","[0, 0, 0]",670,Some of the symbols are circles.,"[1, 0]"
0,,0,0,220,undefined,3,filler,"[11, 3, 8]",,0,,0,1,"[10, 1, 9]",,"[7, 6, 4]",Some of the symbols are circles.,0,,"[1, 0]",True,True,alternative,2.2882333333333333,True,1 + 9 = ?,"[2, 0, 0]","[7, 0, 0]",667,3 + 8 = ?,"[1, 0]"
1,,1,0,188,undefined,0,response,"[5, 2, 9]",,0,,0,1,"[1, 8, 4]",,"[8, 3, 2]",Some of the symbols are notes.,0,,"[0, 1]",False,False,alternative,2.2882333333333333,False,Some of the symbols are clubs.,"[0, 0, 0]","[0, 0, 0]",728,Some of the symbols are squares.,"[0, 1]"
0,,1,1,280,undefined,1,response,"[0, 7, 2]",,1,,2,1,"[1, 5, 6]",,"[9, 3, 8]",There is a triangle.,1,,"[0, 1]",False,True,alternative,2.2882333333333333,False,There is a club.,"[0, 0, 0]","[0, 0, 0]",1281,There is a diamond.,"[1, 0]"
0,,0,1,254,undefined,1,response,"[2, 8, 3]",,1,,1,1,"[8, 2, 0]",,"[6, 1, 3]",There are four stars.,1,,"[1, 0]",False,False,alternative,2.2882333333333333,False,There are four notes.,"[0, 0, 0]","[0, 0, 0]",855,There are four ticks.,"[1, 0]"
1,,1,1,258,undefined,3,filler,"[13, 9, 4]",,1,,0,1,"[6, 6, 0]",,"[8, 7, 9]",Some of the symbols are notes.,1,,"[0, 1]",True,True,alternative,2.2882333333333333,True,6 + 0 = ?,"[1, 0, 0]","[2, 0, 0]",707,9 + 4 = ?,"[0, 1]"
1,,1,1,209,undefined,2,filler,"[8, 5, 2]",,1,,2,1,"[8, 1, 5]",,"[6, 8, 4]",There is a star.,1,,"[0, 1]",True,True,alternative,2.2882333333333333,True,There is a note and a club.,"[0, 0, 0]","[0, 0, 0]",762,There is a note and a square.,"[0, 1]"
0,,1,1,251,undefined,1,response,"[8, 6, 7]",,1,,0,1,"[1, 2, 5]",,"[2, 5, 3]",Some of the symbols are ticks.,1,,"[0, 1]",False,True,alternative,2.2882333333333333,False,Some of the symbols are clubs.,"[0, 0, 0]","[0, 0, 0]",847,Some of the symbols are notes.,"[1, 0]"
0,,0,1,233,undefined,0,response,"[2, 5, 1]",,1,,0,1,"[2, 9, 0]",,"[7, 1, 3]",Some of the symbols are circles.,1,,"[1, 0]",False,False,alternative,2.2882333333333333,False,Some of the symbols are ticks.,"[0, 0, 0]","[0, 0, 0]",758,Some of the symbols are ticks.,"[1, 0]"
0,,1,0,302,undefined,0,filler,"[5, 2, 3]",,0,,0,1,"[9, 1, 4]",,"[8, 9, 6]",Some of the symbols are notes.,0,,"[0, 1]",False,False,alternative,2.2882333333333333,True,Some of the symbols are triangles.,"[0, 0, 0]","[0, 0, 0]",1070,Some of the symbols are squares.,"[1, 0]"
0,,1,0,223,undefined,3,filler,"[8, 6, 2]",,0,,2,1,"[6, 5, 1]",,"[6, 8, 1]",There is a star.,0,,"[0, 1]",False,False,alternative,2.2882333333333333,True,5 + 1 = ?,"[0, 0, 0]","[5, 0, 0]",773,6 + 2 = ?,"[1, 0]"
0,,1,0,241,undefined,2,filler,"[2, 3, 4]",,0,,1,1,"[3, 1, 0]",,"[1, 0, 8]",There are four clubs.,0,,"[0, 1]",False,False,alternative,2.2882333333333333,True,There are six spades.,"[0, 0, 0]","[0, 0, 0]",789,There are six ticks.,"[1, 0]"
0,,1,0,259,undefined,1,response,"[6, 8, 9]",,0,,2,1,"[8, 9, 2]",,"[6, 0, 2]",There is a star.,0,,"[0, 1]",False,False,alternative,2.2882333333333333,True,There is a note.,"[0, 0, 0]","[0, 0, 0]",779,There is a star.,"[1, 0]"
1,,0,1,248,undefined,2,filler,"[3, 9, 7]",,1,,1,1,"[9, 5, 3]",,"[9, 8, 5]",There are four triangles.,1,,"[1, 0]",False,False,alternative,2.2882333333333333,True,There are six triangles.,"[0, 0, 0]","[0, 0, 0]",1109,There are six spades.,"[0, 1]"
1,,1,1,213,undefined,3,response,"[13, 8, 5]",,1,,0,1,"[5, 2, 3]",,"[2, 0, 3]",Some of the symbols are ticks.,1,,"[0, 1]",True,True,alternative,2.2882333333333333,True,2 + 3 = ?,"[3, 0, 0]","[0, 0, 0]",719,8 + 5 = ?,"[0, 1]"
0,,0,0,4682,undefined,2,response,"[1, 5, 4]",,1,,0,1,"[1, 3, 4]",,"[7, 6, 9]",Some of the symbols are circles.,1,,"[1, 0]",False,False,alternative,2.2882333333333333,True,All of the symbols are clubs.,"[0, 0, 0]","[0, 0, 0]",9524,All of the symbols are clubs.,"[1, 0]"
,"[0, 'Margaret']",,,,undefined,,,,bot_check,,Margaret,,2,,,,,,1,,,,,8.79395,,,,,,,
0,,1,0,2223,undefined,1,response,"[0, 4, 2]",,0,,0,2,"[4, 7, 6]",,"[3, 5, 1]",Some of the symbols are spades.,1,,"[0, 1]",True,True,alternative,8.79395,True,Some of the symbols are hearts.,"[0, 0, 0]","[0, 0, 0]",6653,Some of the symbols are diamonds.,"[1, 0]"
1,,1,1,1651,undefined,0,filler,"[6, 4, 3]",,1,,2,2,"[3, 5, 6]",,"[6, 5, 2]",There is a star.,1,,"[0, 1]",True,True,alternative,8.79395,True,There is a spade.,"[0, 0, 0]","[0, 0, 0]",5156,There is a star.,"[0, 1]"
0,,0,0,1183,undefined,0,response,"[0, 4, 9]",,0,,0,2,"[9, 0, 6]",,"[7, 1, 5]",Some of the symbols are circles.,0,,"[1, 0]",True,True,alternative,8.79395,True,Some of the symbols are triangles.,"[0, 0, 0]","[0, 0, 0]",4605,Some of the symbols are diamonds.,"[1, 0]"
0,,1,0,1938,undefined,1,filler,"[7, 8, 5]",,1,,0,2,"[8, 4, 1]",,"[8, 3, 5]",Some of the symbols are notes.,1,,"[0, 1]",True,True,alternative,8.79395,True,Some of the symbols are notes.,"[0, 0, 0]","[0, 0, 0]",7108,Some of the symbols are circles.,"[1, 0]"
1,,0,1,1686,undefined,1,response,"[7, 2, 1]",,0,,2,2,"[4, 8, 7]",,"[0, 6, 5]",There is a diamond.,0,,"[1, 0]",True,True,alternative,8.79395,True,There is a heart.,"[0, 0, 0]","[0, 0, 0]",5000,There is a circle.,"[0, 1]"
0,,1,0,1923,undefined,0,filler,"[7, 2, 5]",,1,,1,2,"[1, 6, 3]",,"[2, 4, 6]",There are four ticks.,1,,"[0, 1]",True,True,alternative,8.79395,True,There are four clubs.,"[0, 0, 0]","[0, 0, 0]",6404,There are four circles.,"[1, 0]"
1,,0,1,8826,undefined,2,filler,"[6, 0, 5]",,1,,0,2,"[9, 7, 4]",,"[8, 6, 2]",Some of the symbols are notes.,0,,"[1, 0]",True,True,alternative,8.79395,True,All of the symbols are triangles.,"[0, 0, 0]","[0, 0, 0]",15219,All of the symbols are stars.,"[0, 1]"
1,,0,1,1148,undefined,0,filler,"[2, 4, 6]",,1,,1,2,"[6, 4, 9]",,"[7, 5, 4]",There are four circles.,0,,"[1, 0]",True,True,alternative,8.79395,True,There are four stars.,"[0, 0, 0]","[0, 0, 0]",3384,There are four ticks.,"[0, 1]"
0,,1,0,1965,undefined,0,filler,"[7, 2, 5]",,1,,2,2,"[5, 3, 8]",,"[3, 6, 9]",There is a spade.,1,,"[0, 1]",True,True,alternative,8.79395,True,There is a square.,"[0, 0, 0]","[0, 0, 0]",4203,There is a circle.,"[1, 0]"
0,,0,0,1983,undefined,2,response,"[6, 4, 2]",,0,,0,2,"[9, 4, 8]",,"[5, 3, 1]",Some of the symbols are squares.,1,,"[1, 0]",False,False,alternative,8.79395,True,All of the symbols are triangles.,"[0, 0, 0]","[0, 0, 0]",6207,All of the symbols are stars.,"[1, 0]"
1,,1,1,1417,undefined,3,response,"[16, 8, 8]",,0,,2,2,"[9, 7, 2]",,"[6, 8, 9]",There is a star.,0,,"[0, 1]",False,False,alternative,8.79395,True,7 + 2 = ?,"[8, 0, 0]","[1, 0, 0]",5293,8 + 8 = ?,"[0, 1]"
1,,0,1,2065,undefined,0,response,"[3, 8, 6]",,0,,0,2,"[6, 7, 2]",,"[8, 6, 9]",Some of the symbols are notes.,0,,"[1, 0]",True,True,alternative,8.79395,True,Some of the symbols are stars.,"[0, 0, 0]","[0, 0, 0]",6217,Some of the symbols are spades.,"[0, 1]"
1,,1,1,1714,undefined,2,filler,"[0, 7, 1]",,1,,1,2,"[6, 1, 8]",,"[7, 1, 6]",There are four circles.,1,,"[0, 1]",True,True,alternative,8.79395,True,There are six stars.,"[0, 0, 0]","[0, 0, 0]",4353,There are six diamonds.,"[0, 1]"
1,,1,1,1998,undefined,2,response,"[6, 3, 2]",,0,,0,2,"[6, 0, 4]",,"[9, 5, 2]",Some of the symbols are triangles.,0,,"[0, 1]",False,False,alternative,8.79395,True,All of the symbols are stars.,"[0, 0, 0]","[0, 0, 0]",5690,All of the symbols are stars.,"[0, 1]"
1,,0,0,1866,undefined,3,filler,"[1, 0, 1]",,1,,2,2,"[10, 6, 4]",,"[1, 2, 0]",There is a club.,1,,"[1, 0]",False,False,alternative,8.79395,False,6 + 4 = ?,"[2, 0, 0]","[2, 0, 0]",5913,0 + 1 = ?,"[0, 1]"
0,,0,0,1420,undefined,3,filler,"[14, 6, 8]",,1,,2,2,"[15, 9, 6]",,"[2, 1, 9]",There is a tick.,1,,"[1, 0]",False,False,alternative,8.79395,True,9 + 6 = ?,"[0, 0, 0]","[9, 0, 0]",5526,6 + 8 = ?,"[1, 0]"
1,,0,0,1149,undefined,3,filler,"[8, 2, 6]",,1,,1,2,"[11, 8, 3]",,"[2, 0, 1]",There are four ticks.,1,,"[1, 0]",False,False,alternative,8.79395,False,8 + 3 = ?,"[7, 0, 0]","[7, 0, 0]",3970,2 + 6 = ?,"[0, 1]"
0,,0,1,1991,undefined,3,response,"[2, 2, 0]",,0,,0,2,"[7, 7, 0]",,"[1, 5, 3]",Some of the symbols are clubs.,0,,"[1, 0]",False,True,alternative,8.79395,False,7 + 0 = ?,"[0, 0, 0]","[3, 0, 0]",4412,2 + 0 = ?,"[1, 0]"
0,,0,0,1213,undefined,2,filler,"[1, 6, 2]",,1,,2,2,"[1, 0, 9]",,"[1, 5, 2]",There is a club.,0,,"[1, 0]",True,True,alternative,8.79395,True,There is a club and a diamond.,"[0, 0, 0]","[0, 0, 0]",9505,There is a club and a star.,"[1, 0]"
0,,1,1,1400,undefined,3,response,"[12, 6, 6]",,0,,0,2,"[5, 0, 5]",,"[4, 1, 0]",Some of the symbols are hearts.,0,,"[0, 1]",False,False,alternative,8.79395,False,0 + 5 = ?,"[8, 0, 0]","[1, 0, 0]",3630,6 + 6 = ?,"[1, 0]"
1,,1,1,1160,undefined,0,response,"[5, 7, 4]",,0,,1,2,"[4, 6, 1]",,"[3, 8, 2]",There are four spades.,1,,"[0, 1]",True,True,alternative,8.79395,True,There are four hearts.,"[0, 0, 0]","[0, 0, 0]",3536,There are four squares.,"[0, 1]"
1,,1,1,4502,undefined,2,filler,"[8, 4, 0]",,1,,2,2,"[0, 6, 9]",,"[9, 7, 8]",There is a triangle.,1,,"[0, 1]",True,True,alternative,8.79395,True,There is a diamond and a star.,"[0, 0, 0]","[0, 0, 0]",7425,There is a note and a heart.,"[0, 1]"
1,,0,1,1178,undefined,3,filler,"[15, 6, 9]",,1,,1,2,"[13, 7, 6]",,"[0, 2, 8]",There are four diamonds.,0,,"[1, 0]",True,True,alternative,8.79395,True,7 + 6 = ?,"[7, 0, 0]","[1, 0, 0]",3875,6 + 9 = ?,"[0, 1]"
1,,1,1,1330,undefined,0,filler,"[9, 4, 8]",,1,,0,2,"[0, 1, 4]",,"[8, 6, 0]",Some of the symbols are notes.,1,,"[0, 1]",True,True,alternative,8.79395,True,Some of the symbols are diamonds.,"[0, 0, 0]","[0, 0, 0]",4299,Some of the symbols are triangles.,"[0, 1]"
0,,0,0,1087,undefined,2,response,"[8, 4, 0]",,0,,1,2,"[5, 6, 3]",,"[2, 1, 5]",There are four ticks.,0,,"[1, 0]",True,True,alternative,8.79395,True,There are six squares.,"[0, 0, 0]","[0, 0, 0]",3683,There are six notes.,"[1, 0]"
0,,0,1,1383,undefined,1,filler,"[3, 2, 5]",,1,,2,2,"[7, 5, 4]",,"[9, 5, 7]",There is a triangle.,1,,"[1, 0]",False,False,alternative,8.79395,False,There is a circle.,"[0, 0, 0]","[0, 0, 0]",7758,There is a spade.,"[1, 0]"
1,,1,1,1315,undefined,1,filler,"[1, 5, 7]",,1,,1,2,"[1, 4, 7]",,"[7, 9, 4]",There are four circles.,1,,"[0, 1]",True,True,alternative,8.79395,True,There are four clubs.,"[0, 0, 0]","[0, 0, 0]",4121,There are four clubs.,"[0, 1]"
0,,1,0,1134,undefined,0,response,"[0, 9, 2]",,0,,2,2,"[4, 3, 6]",,"[4, 1, 2]",There is a heart.,1,,"[0, 1]",True,True,alternative,8.79395,True,There is a heart.,"[0, 0, 0]","[0, 0, 0]",4476,There is a diamond.,"[1, 0]"
0,,0,0,1520,undefined,2,filler,"[9, 2, 1]",,1,,2,2,"[6, 2, 1]",,"[1, 2, 4]",There is a club.,0,,"[1, 0]",True,True,alternative,8.79395,True,There is a star and a tick.,"[0, 0, 0]","[0, 0, 0]",4358,There is a triangle and a tick.,"[1, 0]"
1,,1,1,1341,undefined,0,response,"[8, 2, 0]",,0,,0,2,"[6, 9, 7]",,"[4, 3, 7]",Some of the symbols are hearts.,1,,"[0, 1]",True,True,alternative,8.79395,True,Some of the symbols are stars.,"[0, 0, 0]","[0, 0, 0]",5462,Some of the symbols are notes.,"[0, 1]"
0,,1,0,1100,undefined,1,filler,"[7, 5, 4]",,1,,1,2,"[3, 5, 1]",,"[7, 8, 0]",There are four circles.,1,,"[0, 1]",True,True,alternative,8.79395,True,There are four spades.,"[0, 0, 0]","[0, 0, 0]",4773,There are four circles.,"[1, 0]"
1,,1,1,1693,undefined,2,response,"[8, 3, 1]",,0,,2,2,"[3, 8, 0]",,"[3, 9, 7]",There is a spade.,1,,"[0, 1]",True,True,alternative,8.79395,True,There is a spade and a note.,"[0, 0, 0]","[0, 0, 0]",4616,There is a note and a spade.,"[0, 1]"
0,,0,1,1292,undefined,3,filler,"[4, 3, 1]",,1,,1,2,"[3, 3, 0]",,"[3, 2, 6]",There are four spades.,1,,"[1, 0]",False,False,alternative,8.79395,False,3 + 0 = ?,"[1, 0, 0]","[4, 0, 0]",4740,3 + 1 = ?,"[1, 0]"
1,,0,1,1077,undefined,1,response,"[9, 8, 1]",,0,,1,2,"[6, 3, 7]",,"[8, 0, 6]",There are four notes.,1,,"[1, 0]",False,False,alternative,8.79395,True,There are four stars.,"[0, 0, 0]","[0, 0, 0]",3920,There are four triangles.,"[0, 1]"
1,,0,0,14859,undefined,3,filler,"[16, 7, 9]",,1,,0,2,"[9, 4, 5]",,"[6, 1, 8]",Some of the symbols are stars.,1,,"[1, 0]",False,False,alternative,8.79395,False,4 + 5 = ?,"[3, 0, 0]","[0, 0, 0]",17842,7 + 9 = ?,"[0, 1]"
0,,1,0,1179,undefined,0,filler,"[3, 5, 2]",,1,,0,2,"[1, 2, 4]",,"[5, 0, 7]",Some of the symbols are squares.,1,,"[0, 1]",True,True,alternative,8.79395,True,Some of the symbols are clubs.,"[0, 0, 0]","[0, 0, 0]",4971,Some of the symbols are spades.,"[1, 0]"
1,,0,1,947,undefined,0,response,"[9, 2, 1]",,0,,1,2,"[7, 6, 0]",,"[1, 3, 9]",There are four clubs.,0,,"[1, 0]",True,True,alternative,8.79395,True,There are four circles.,"[0, 0, 0]","[0, 0, 0]",3369,There are four triangles.,"[0, 1]"
1,,1,1,986,undefined,0,filler,"[3, 0, 9]",,1,,1,2,"[8, 1, 2]",,"[7, 9, 2]",There are four circles.,1,,"[0, 1]",True,True,alternative,8.79395,True,There are four notes.,"[0, 0, 0]","[0, 0, 0]",3153,There are four spades.,"[0, 1]"
0,,0,0,1212,undefined,3,response,"[2, 2, 0]",,0,,2,2,"[6, 1, 5]",,"[6, 5, 0]",There is a star.,1,,"[1, 0]",False,False,alternative,8.79395,True,1 + 5 = ?,"[9, 0, 0]","[0, 0, 0]",3304,2 + 0 = ?,"[1, 0]"
0,,0,1,1177,undefined,1,response,"[8, 9, 7]",,0,,0,2,"[2, 3, 9]",,"[1, 6, 4]",Some of the symbols are clubs.,1,,"[1, 0]",False,False,alternative,8.79395,False,Some of the symbols are ticks.,"[0, 0, 0]","[0, 0, 0]",3226,Some of the symbols are notes.,"[1, 0]"
0,,1,1,928,undefined,3,response,"[7, 4, 3]",,0,,1,2,"[9, 3, 6]",,"[6, 1, 9]",There are four stars.,0,,"[0, 1]",False,False,alternative,8.79395,False,3 + 6 = ?,"[8, 0, 0]","[0, 0, 0]",3137,4 + 3 = ?,"[1, 0]"
1,,0,1,2045,undefined,1,filler,"[4, 9, 8]",,1,,2,2,"[6, 3, 1]",,"[6, 7, 8]",There is a star.,0,,"[1, 0]",True,True,alternative,8.79395,True,There is a star.,"[0, 0, 0]","[0, 0, 0]",4609,There is a heart.,"[0, 1]"
1,,1,0,1343,undefined,3,filler,"[9, 8, 1]",,1,,0,2,"[3, 2, 1]",,"[6, 1, 2]",Some of the symbols are stars.,1,,"[0, 1]",False,True,alternative,8.79395,False,2 + 1 = ?,"[8, 0, 0]","[2, 0, 0]",3341,8 + 1 = ?,"[0, 1]"
1,,0,1,952,undefined,0,filler,"[6, 4, 0]",,1,,0,2,"[1, 6, 8]",,"[6, 5, 8]",Some of the symbols are stars.,0,,"[1, 0]",True,True,alternative,8.79395,True,Some of the symbols are clubs.,"[0, 0, 0]","[0, 0, 0]",2965,Some of the symbols are stars.,"[0, 1]"
0,,0,1,1019,undefined,1,response,"[5, 1, 8]",,0,,0,2,"[0, 7, 8]",,"[4, 7, 3]",Some of the symbols are hearts.,1,,"[1, 0]",False,False,alternative,8.79395,False,Some of the symbols are diamonds.,"[0, 0, 0]","[0, 0, 0]",3127,Some of the symbols are squares.,"[1, 0]"
0,,1,0,1133,undefined,0,response,"[5, 3, 8]",,0,,2,2,"[1, 4, 6]",,"[6, 9, 3]",There is a star.,1,,"[0, 1]",True,True,alternative,8.79395,True,There is a club.,"[0, 0, 0]","[0, 0, 0]",4129,There is a square.,"[1, 0]"
0,,1,0,1249,undefined,2,response,"[5, 2, 0]",,0,,1,2,"[4, 9, 6]",,"[9, 2, 0]",There are four triangles.,1,,"[0, 1]",True,True,alternative,8.79395,True,There are six hearts.,"[0, 0, 0]","[0, 0, 0]",3472,There are six squares.,"[1, 0]"
0,,0,1,1103,undefined,1,response,"[8, 7, 3]",,0,,2,2,"[4, 5, 9]",,"[5, 7, 4]",There is a square.,1,,"[1, 0]",False,False,alternative,8.79395,False,There is a heart.,"[0, 0, 0]","[0, 0, 0]",4078,There is a note.,"[1, 0]"
1,,0,1,1141,undefined,1,response,"[1, 9, 5]",,0,,1,2,"[1, 0, 3]",,"[8, 7, 9]",There are four notes.,1,,"[1, 0]",False,False,alternative,8.79395,True,There are four clubs.,"[0, 0, 0]","[0, 0, 0]",3429,There are four clubs.,"[0, 1]"
1,,0,1,1022,undefined,0,response,"[1, 2, 4]",,0,,0,2,"[5, 0, 9]",,"[9, 0, 5]",Some of the symbols are triangles.,0,,"[1, 0]",True,True,alternative,8.79395,True,Some of the symbols are squares.,"[0, 0, 0]","[0, 0, 0]",3602,Some of the symbols are clubs.,"[0, 1]"
1,,1,1,1057,undefined,1,response,"[9, 8, 6]",,0,,1,2,"[8, 6, 7]",,"[4, 1, 3]",There are four hearts.,1,,"[0, 1]",True,True,alternative,8.79395,True,There are four notes.,"[0, 0, 0]","[0, 0, 0]",4964,There are four triangles.,"[0, 1]"
0,,1,1,1213,undefined,1,filler,"[4, 0, 5]",,1,,0,2,"[2, 0, 5]",,"[5, 7, 1]",Some of the symbols are squares.,1,,"[0, 1]",False,True,alternative,8.79395,False,Some of the symbols are ticks.,"[0, 0, 0]","[0, 0, 0]",4266,Some of the symbols are hearts.,"[1, 0]"
0,,1,0,1435,undefined,1,filler,"[5, 0, 7]",,1,,1,2,"[6, 7, 2]",,"[6, 7, 4]",There are four stars.,0,,"[0, 1]",False,False,alternative,8.79395,True,There are four stars.,"[0, 0, 0]","[0, 0, 0]",4010,There are four squares.,"[1, 0]"
0,,1,0,1172,undefined,1,response,"[0, 9, 8]",,0,,1,2,"[1, 2, 3]",,"[3, 5, 2]",There are four spades.,1,,"[0, 1]",True,True,alternative,8.79395,True,There are four clubs.,"[0, 0, 0]","[0, 0, 0]",3446,There are four diamonds.,"[1, 0]"
1,,0,1,1481,undefined,0,response,"[9, 4, 3]",,0,,2,2,"[5, 4, 3]",,"[5, 3, 7]",There is a square.,0,,"[1, 0]",True,True,alternative,8.79395,True,There is a square.,"[0, 0, 0]","[0, 0, 0]",4267,There is a triangle.,"[0, 1]"
0,,0,1,1436,undefined,3,filler,"[10, 1, 9]",,1,,0,2,"[8, 7, 1]",,"[3, 5, 9]",Some of the symbols are spades.,0,,"[1, 0]",False,True,alternative,8.79395,False,7 + 1 = ?,"[8, 0, 0]","[8, 0, 0]",3935,1 + 9 = ?,"[1, 0]"
1,,1,0,1405,undefined,3,filler,"[9, 0, 9]",,1,,2,2,"[9, 4, 5]",,"[7, 0, 1]",There is a circle.,1,,"[0, 1]",False,True,alternative,8.79395,False,4 + 5 = ?,"[0, 0, 0]","[3, 0, 0]",3686,0 + 9 = ?,"[0, 1]"
1,,1,0,1445,undefined,1,filler,"[3, 2, 7]",,1,,0,2,"[3, 6, 9]",,"[8, 3, 4]",Some of the symbols are notes.,0,,"[0, 1]",False,False,alternative,8.79395,False,Some of the symbols are spades.,"[0, 0, 0]","[0, 0, 0]",5457,Some of the symbols are spades.,"[0, 1]"
0,,1,0,1205,undefined,1,filler,"[7, 6, 4]",,1,,2,2,"[3, 6, 9]",,"[5, 9, 8]",There is a square.,1,,"[0, 1]",True,True,alternative,8.79395,True,There is a spade.,"[0, 0, 0]","[0, 0, 0]",3585,There is a circle.,"[1, 0]"
1,,0,1,2085,undefined,2,filler,"[7, 2, 0]",,1,,0,2,"[1, 4, 8]",,"[9, 3, 4]",Some of the symbols are triangles.,1,,"[1, 0]",False,False,alternative,8.79395,True,All of the symbols are clubs.,"[0, 0, 0]","[0, 0, 0]",7867,All of the symbols are circles.,"[0, 1]"
0,,1,0,1409,undefined,2,filler,"[9, 0, 2]",,1,,2,2,"[7, 6, 1]",,"[6, 4, 3]",There is a star.,0,,"[0, 1]",False,False,alternative,8.79395,True,There is a circle and a star.,"[0, 0, 0]","[0, 0, 0]",4162,There is a triangle and a diamond.,"[1, 0]"
1,,1,1,1332,undefined,3,response,"[3, 2, 1]",,0,,0,2,"[9, 0, 9]",,"[7, 6, 2]",Some of the symbols are circles.,0,,"[0, 1]",False,False,alternative,8.79395,True,0 + 9 = ?,"[8, 0, 0]","[9, 0, 0]",3346,2 + 1 = ?,"[0, 1]"
1,,1,1,1006,undefined,0,response,"[9, 0, 3]",,0,,2,2,"[9, 6, 4]",,"[8, 9, 1]",There is a note.,1,,"[0, 1]",True,True,alternative,8.79395,True,There is a triangle.,"[0, 0, 0]","[0, 0, 0]",3096,There is a triangle.,"[0, 1]"
1,,0,1,1435,undefined,0,filler,"[7, 5, 6]",,1,,2,2,"[5, 4, 0]",,"[4, 7, 3]",There is a heart.,0,,"[1, 0]",True,True,alternative,8.79395,True,There is a square.,"[0, 0, 0]","[0, 0, 0]",3930,There is a circle.,"[0, 1]"
0,,1,0,1153,undefined,3,filler,"[12, 7, 5]",,1,,2,2,"[8, 8, 0]",,"[2, 8, 9]",There is a tick.,1,,"[0, 1]",True,True,alternative,8.79395,True,8 + 0 = ?,"[3, 0, 0]","[1, 0, 0]",3842,7 + 5 = ?,"[1, 0]"
1,,1,1,1826,undefined,2,response,"[6, 3, 4]",,0,,0,2,"[8, 9, 6]",,"[8, 4, 5]",Some of the symbols are notes.,1,,"[0, 1]",True,True,alternative,8.79395,True,All of the symbols are notes.,"[0, 0, 0]","[0, 0, 0]",5041,All of the symbols are stars.,"[0, 1]"
0,,1,0,1139,undefined,3,response,"[7, 7, 0]",,0,,2,2,"[12, 5, 7]",,"[2, 4, 1]",There is a tick.,1,,"[0, 1]",True,True,alternative,8.79395,True,5 + 7 = ?,"[4, 0, 0]","[1, 0, 0]",4447,7 + 0 = ?,"[1, 0]"
0,,0,0,1116,undefined,2,response,"[5, 1, 7]",,0,,1,2,"[0, 4, 2]",,"[9, 6, 2]",There are four triangles.,0,,"[1, 0]",True,True,alternative,8.79395,True,There are six diamonds.,"[0, 0, 0]","[0, 0, 0]",4543,There are six squares.,"[1, 0]"
1,,0,1,1484,undefined,2,response,"[2, 5, 7]",,0,,0,2,"[4, 6, 9]",,"[6, 0, 5]",Some of the symbols are stars.,0,,"[1, 0]",True,True,alternative,8.79395,True,All of the symbols are hearts.,"[0, 0, 0]","[0, 0, 0]",4954,All of the symbols are ticks.,"[0, 1]"
0,,0,0,1197,undefined,2,response,"[1, 2, 3]",,0,,1,2,"[7, 8, 2]",,"[5, 0, 7]",There are four squares.,0,,"[1, 0]",True,True,alternative,8.79395,True,There are six circles.,"[0, 0, 0]","[0, 0, 0]",4425,There are six clubs.,"[1, 0]"
0,,0,0,1423,undefined,2,response,"[5, 4, 9]",,0,,2,2,"[6, 7, 4]",,"[3, 2, 1]",There is a spade.,0,,"[1, 0]",True,True,alternative,8.79395,True,There is a star and a circle.,"[0, 0, 0]","[0, 0, 0]",5339,There is a square and a heart.,"[1, 0]"
1,,1,1,2226,undefined,2,filler,"[0, 9, 5]",,1,,0,2,"[4, 6, 3]",,"[9, 4, 2]",Some of the symbols are triangles.,1,,"[0, 1]",True,True,alternative,8.79395,True,All of the symbols are hearts.,"[0, 0, 0]","[0, 0, 0]",5407,All of the symbols are diamonds.,"[0, 1]"
0,,1,0,1311,undefined,3,response,"[13, 5, 8]",,0,,0,2,"[8, 2, 6]",,"[0, 2, 5]",Some of the symbols are diamonds.,1,,"[0, 1]",True,True,alternative,8.79395,True,2 + 6 = ?,"[7, 0, 0]","[5, 0, 0]",3952,5 + 8 = ?,"[1, 0]"
0,,1,0,1249,undefined,2,response,"[0, 3, 9]",,0,,2,2,"[5, 9, 8]",,"[0, 2, 8]",There is a diamond.,1,,"[0, 1]",True,True,alternative,8.79395,True,There is a square and a triangle.,"[0, 0, 0]","[0, 0, 0]",4108,There is a diamond and a spade.,"[1, 0]"
0,,0,0,1322,undefined,0,filler,"[8, 6, 7]",,1,,1,2,"[0, 7, 4]",,"[8, 0, 3]",There are four notes.,0,,"[1, 0]",True,True,alternative,8.79395,True,There are four diamonds.,"[0, 0, 0]","[0, 0, 0]",3977,There are four notes.,"[1, 0]"
1,,1,1,1089,undefined,3,response,"[3, 2, 1]",,0,,1,2,"[12, 5, 7]",,"[7, 8, 9]",There are four circles.,0,,"[0, 1]",False,False,alternative,8.79395,True,5 + 7 = ?,"[6, 0, 0]","[8, 0, 0]",3495,2 + 1 = ?,"[0, 1]"
0,,1,1,1010,undefined,3,response,"[12, 5, 7]",,0,,1,2,"[9, 8, 1]",,"[9, 2, 8]",There are four triangles.,0,,"[0, 1]",False,False,alternative,8.79395,False,8 + 1 = ?,"[8, 0, 0]","[4, 0, 0]",3391,5 + 7 = ?,"[1, 0]"
1,,0,1,1270,undefined,2,filler,"[2, 4, 9]",,1,,1,2,"[3, 7, 9]",,"[4, 1, 9]",There are four hearts.,0,,"[1, 0]",True,True,alternative,8.79395,True,There are six spades.,"[0, 0, 0]","[0, 0, 0]",3266,There are six ticks.,"[0, 1]"
0,,1,0,961,undefined,1,response,"[4, 1, 6]",,0,,2,2,"[1, 0, 7]",,"[2, 5, 4]",There is a tick.,1,,"[0, 1]",True,True,alternative,8.79395,True,There is a club.,"[0, 0, 0]","[0, 0, 0]",2964,There is a heart.,"[1, 0]"
0,,0,1,1031,undefined,3,response,"[9, 0, 9]",,0,,2,2,"[6, 0, 6]",,"[7, 8, 6]",There is a circle.,0,,"[1, 0]",False,True,alternative,8.79395,False,0 + 6 = ?,"[9, 0, 0]","[7, 0, 0]",2945,0 + 9 = ?,"[1, 0]"
0,,0,0,1378,undefined,2,filler,"[5, 6, 4]",,0,,0,2,"[0, 5, 7]",,"[1, 3, 2]",Some of the symbols are clubs.,0,,"[1, 0]",True,True,alternative,8.79395,True,All of the symbols are diamonds.,"[0, 0, 0]","[0, 0, 0]",3534,All of the symbols are squares.,"[1, 0]"
1,,1,1,1027,undefined,0,response,"[4, 8, 0]",,0,,1,2,"[6, 8, 0]",,"[6, 4, 8]",There are four stars.,1,,"[0, 1]",True,True,alternative,8.79395,True,There are four stars.,"[0, 0, 0]","[0, 0, 0]",5419,There are four hearts.,"[0, 1]"
1,,1,1,1233,undefined,1,filler,"[6, 1, 3]",,1,,2,2,"[2, 3, 9]",,"[6, 8, 7]",There is a star.,1,,"[0, 1]",True,True,alternative,8.79395,True,There is a tick.,"[0, 0, 0]","[0, 0, 0]",3200,There is a star.,"[0, 1]"
0,,1,0,1181,undefined,0,filler,"[4, 6, 2]",,1,,2,2,"[2, 7, 4]",,"[9, 5, 8]",There is a triangle.,1,,"[0, 1]",True,True,alternative,8.79395,True,There is a tick.,"[0, 0, 0]","[0, 0, 0]",3492,There is a heart.,"[1, 0]"
1,,0,0,1216,undefined,3,filler,"[8, 3, 5]",,1,,1,2,"[3, 0, 3]",,"[7, 0, 6]",There are four circles.,1,,"[1, 0]",False,False,alternative,8.79395,False,0 + 3 = ?,"[4, 0, 0]","[7, 0, 0]",3753,3 + 5 = ?,"[0, 1]"
0,,1,0,1056,undefined,2,filler,"[8, 6, 5]",,1,,1,2,"[6, 2, 4]",,"[3, 2, 1]",There are four spades.,1,,"[0, 1]",True,True,alternative,8.79395,True,There are six stars.,"[0, 0, 0]","[0, 0, 0]",14065,There are six notes.,"[1, 0]"
1,,0,1,1121,undefined,3,response,"[7, 5, 2]",,0,,1,2,"[5, 5, 0]",,"[5, 0, 3]",There are four squares.,0,,"[1, 0]",True,True,alternative,8.79395,True,5 + 0 = ?,"[1, 0, 0]","[1, 0, 0]",3128,5 + 2 = ?,"[0, 1]"
0,,0,0,1212,undefined,1,filler,"[9, 1, 4]",,1,,0,2,"[9, 2, 5]",,"[2, 7, 0]",Some of the symbols are ticks.,0,,"[1, 0]",True,True,alternative,8.79395,True,Some of the symbols are triangles.,"[0, 0, 0]","[0, 0, 0]",6927,Some of the symbols are triangles.,"[1, 0]"
1,,0,1,2211,undefined,2,response,"[7, 0, 3]",,0,,2,2,"[6, 7, 8]",,"[0, 9, 7]",There is a diamond.,0,,"[1, 0]",True,True,alternative,8.79395,True,There is a star and a circle.,"[0, 0, 0]","[0, 0, 0]",4925,There is a circle and a diamond.,"[0, 1]"
1,,0,1,1149,undefined,1,response,"[9, 8, 4]",,0,,2,2,"[9, 0, 7]",,"[3, 1, 8]",There is a spade.,0,,"[1, 0]",True,True,alternative,8.79395,True,There is a triangle.,"[0, 0, 0]","[0, 0, 0]",3507,There is a triangle.,"[0, 1]"
1,,0,1,854,undefined,0,response,"[5, 1, 7]",,0,,1,2,"[8, 4, 2]",,"[5, 9, 4]",There are four squares.,0,,"[1, 0]",True,True,alternative,8.79395,True,There are four notes.,"[0, 0, 0]","[0, 0, 0]",3073,There are four squares.,"[0, 1]"
0,,0,0,1007,undefined,1,filler,"[5, 0, 4]",,1,,1,2,"[3, 7, 6]",,"[2, 4, 5]",There are four ticks.,1,,"[1, 0]",False,False,alternative,8.79395,True,There are four spades.,"[0, 0, 0]","[0, 0, 0]",3504,There are four squares.,"[1, 0]"
1,,1,1,1331,undefined,2,filler,"[4, 3, 9]",,1,,1,2,"[5, 8, 0]",,"[2, 8, 4]",There are four ticks.,1,,"[0, 1]",True,True,alternative,8.79395,True,There are six squares.,"[0, 0, 0]","[0, 0, 0]",3451,There are six hearts.,"[0, 1]"
1,,1,1,1597,undefined,1,response,"[8, 5, 1]",,0,,0,2,"[0, 5, 7]",,"[1, 8, 7]",Some of the symbols are clubs.,1,,"[0, 1]",True,True,alternative,8.79395,True,Some of the symbols are diamonds.,"[0, 0, 0]","[0, 0, 0]",5096,Some of the symbols are notes.,"[0, 1]"
0,,0,1,1455,undefined,3,filler,"[8, 7, 1]",,1,,0,2,"[8, 0, 8]",,"[7, 6, 9]",Some of the symbols are circles.,0,,"[1, 0]",False,True,alternative,8.79395,False,0 + 8 = ?,"[2, 0, 0]","[1, 0, 0]",3466,7 + 1 = ?,"[1, 0]"
0,,0,0,1224,undefined,0,filler,"[6, 1, 2]",,1,,0,2,"[6, 5, 2]",,"[4, 6, 2]",Some of the symbols are hearts.,0,,"[1, 0]",True,True,alternative,8.79395,True,Some of the symbols are stars.,"[0, 0, 0]","[0, 0, 0]",4431,Some of the symbols are stars.,"[1, 0]"
,"[0, 'Sarah']",,,,undefined,,,,bot_check,,Sarah,,3,,,,,,1,,,,,10.611366666666667,,,,,,,
0,,0,0,2020,undefined,1,response,"[9, 4, 0]",,1,,1,3,"[3, 7, 8]",,"[2, 3, 8]",There are four ticks.,0,,"[1, 0]",True,True,alternative,10.611366666666667,True,There are four spades.,"[0, 0, 0]","[0, 0, 0]",6498,There are four triangles.,"[1, 0]"
1,,0,1,1780,undefined,2,filler,"[0, 6, 7]",,1,,2,3,"[6, 9, 5]",,"[4, 5, 1]",There is a heart.,0,,"[1, 0]",True,True,alternative,10.611366666666667,True,There is a star and a triangle.,"[0, 0, 0]","[0, 0, 0]",8084,There is a diamond and a star.,"[0, 1]"
0,,1,0,2601,undefined,2,filler,"[7, 1, 8]",,1,,2,3,"[6, 5, 2]",,"[7, 5, 8]",There is a circle.,1,,"[0, 1]",True,True,alternative,10.611366666666667,True,There is a star and a square.,"[0, 0, 0]","[0, 0, 0]",8570,There is a circle and a club.,"[1, 0]"
1,,0,1,1903,undefined,1,filler,"[6, 5, 3]",,1,,2,3,"[4, 3, 2]",,"[4, 1, 9]",There is a heart.,0,,"[1, 0]",True,True,alternative,10.611366666666667,True,There is a heart.,"[0, 0, 0]","[0, 0, 0]",6094,There is a star.,"[0, 1]"
1,,0,1,1386,undefined,2,filler,"[7, 0, 1]",,1,,2,3,"[3, 6, 1]",,"[5, 2, 1]",There is a square.,0,,"[1, 0]",True,True,alternative,10.611366666666667,True,There is a spade and a star.,"[0, 0, 0]","[0, 0, 0]",4765,There is a circle and a diamond.,"[0, 1]"
0,,0,0,4112,undefined,2,response,"[4, 6, 1]",,1,,1,3,"[7, 8, 9]",,"[5, 9, 6]",There are four squares.,0,,"[1, 0]",True,True,alternative,10.611366666666667,True,There are six circles.,"[0, 0, 0]","[0, 0, 0]",8326,There are six hearts.,"[1, 0]"
1,,1,1,1420,undefined,0,response,"[1, 9, 6]",,0,,0,3,"[1, 5, 2]",,"[5, 3, 4]",Some of the symbols are squares.,1,,"[0, 1]",True,True,alternative,10.611366666666667,True,Some of the symbols are clubs.,"[0, 0, 0]","[0, 0, 0]",5165,Some of the symbols are clubs.,"[0, 1]"
1,,1,1,2435,undefined,3,filler,"[4, 0, 4]",,1,,0,3,"[11, 5, 6]",,"[9, 3, 2]",Some of the symbols are triangles.,0,,"[0, 1]",False,False,alternative,10.611366666666667,True,5 + 6 = ?,"[0, 0, 0]","[6, 0, 0]",7103,0 + 4 = ?,"[0, 1]"
1,,1,1,1830,undefined,3,filler,"[10, 7, 3]",,1,,1,3,"[13, 5, 8]",,"[0, 4, 9]",There are four diamonds.,0,,"[0, 1]",False,False,alternative,10.611366666666667,True,5 + 8 = ?,"[5, 0, 0]","[4, 0, 0]",5575,7 + 3 = ?,"[0, 1]"
1,,0,1,3321,undefined,2,response,"[4, 5, 1]",,1,,0,3,"[3, 4, 8]",,"[6, 0, 2]",Some of the symbols are stars.,0,,"[1, 0]",True,True,alternative,10.611366666666667,True,All of the symbols are spades.,"[0, 0, 0]","[0, 0, 0]",7243,All of the symbols are hearts.,"[0, 1]"
1,,0,1,1454,undefined,0,filler,"[5, 2, 9]",,1,,1,3,"[7, 9, 5]",,"[2, 9, 1]",There are four ticks.,0,,"[1, 0]",True,True,alternative,10.611366666666667,True,There are four circles.,"[0, 0, 0]","[0, 0, 0]",4974,There are four squares.,"[0, 1]"
1,,1,0,1351,undefined,3,filler,"[4, 0, 4]",,1,,2,3,"[13, 5, 8]",,"[4, 2, 7]",There is a heart.,1,,"[0, 1]",False,True,alternative,10.611366666666667,False,5 + 8 = ?,"[3, 0, 0]","[5, 0, 0]",4321,0 + 4 = ?,"[0, 1]"
0,,0,0,1564,undefined,0,filler,"[6, 9, 3]",,1,,1,3,"[1, 6, 5]",,"[2, 9, 0]",There are four ticks.,0,,"[1, 0]",True,True,alternative,10.611366666666667,True,There are four clubs.,"[0, 0, 0]","[0, 0, 0]",4915,There are four stars.,"[1, 0]"
1,,0,1,1130,undefined,0,response,"[6, 4, 1]",,0,,1,3,"[8, 9, 3]",,"[1, 9, 2]",There are four clubs.,0,,"[1, 0]",True,True,alternative,10.611366666666667,True,There are four notes.,"[0, 0, 0]","[0, 0, 0]",3511,There are four stars.,"[0, 1]"
0,,1,1,3531,undefined,3,response,"[8, 5, 3]",,1,,0,3,"[6, 1, 5]",,"[2, 1, 5]",Some of the symbols are ticks.,0,,"[0, 1]",False,False,alternative,10.611366666666667,False,1 + 5 = ?,"[3, 0, 0]","[7, 0, 0]",8824,5 + 3 = ?,"[1, 0]"
1,,0,1,2400,undefined,0,response,"[7, 9, 5]",,0,,1,3,"[5, 8, 9]",,"[4, 1, 7]",There are four hearts.,0,,"[1, 0]",True,True,alternative,10.611366666666667,True,There are four squares.,"[0, 0, 0]","[0, 0, 0]",4533,There are four circles.,"[0, 1]"
0,,0,1,2008,undefined,3,filler,"[5, 2, 3]",,1,,2,3,"[6, 0, 6]",,"[9, 2, 8]",There is a triangle.,0,,"[1, 0]",False,True,alternative,10.611366666666667,False,0 + 6 = ?,"[5, 0, 0]","[7, 0, 0]",4910,2 + 3 = ?,"[1, 0]"
0,,0,0,1294,undefined,0,response,"[1, 3, 7]",,0,,0,3,"[8, 2, 3]",,"[9, 2, 1]",Some of the symbols are triangles.,0,,"[1, 0]",True,True,alternative,10.611366666666667,True,Some of the symbols are notes.,"[0, 0, 0]","[0, 0, 0]",7810,Some of the symbols are clubs.,"[1, 0]"
1,,0,1,2063,undefined,2,filler,"[9, 6, 2]",,1,,0,3,"[5, 7, 0]",,"[0, 3, 2]",Some of the symbols are diamonds.,1,,"[1, 0]",False,False,alternative,10.611366666666667,True,All of the symbols are squares.,"[0, 0, 0]","[0, 0, 0]",7775,All of the symbols are triangles.,"[0, 1]"
0,,0,0,1663,undefined,0,filler,"[5, 4, 6]",,1,,0,3,"[7, 3, 0]",,"[6, 1, 2]",Some of the symbols are stars.,0,,"[1, 0]",True,True,alternative,10.611366666666667,True,Some of the symbols are circles.,"[0, 0, 0]","[0, 0, 0]",5392,Some of the symbols are squares.,"[1, 0]"
1,,1,1,1912,undefined,1,filler,"[9, 2, 1]",,1,,1,3,"[6, 3, 0]",,"[9, 3, 4]",There are four triangles.,1,,"[0, 1]",True,True,alternative,10.611366666666667,True,There are four stars.,"[0, 0, 0]","[0, 0, 0]",4691,There are four triangles.,"[0, 1]"
1,,1,1,1737,undefined,0,filler,"[9, 8, 4]",,1,,2,3,"[4, 0, 3]",,"[3, 9, 7]",There is a spade.,1,,"[0, 1]",True,True,alternative,10.611366666666667,True,There is a heart.,"[0, 0, 0]","[0, 0, 0]",5157,There is a triangle.,"[0, 1]"
1,,1,0,2095,undefined,3,response,"[16, 9, 7]",,1,,1,3,"[9, 1, 8]",,"[6, 7, 5]",There are four stars.,1,,"[0, 1]",False,True,alternative,10.611366666666667,False,1 + 8 = ?,"[3, 0, 0]","[0, 0, 0]",5842,9 + 7 = ?,"[0, 1]"
0,,0,1,1309,undefined,3,response,"[14, 5, 9]",,0,,2,3,"[5, 3, 2]",,"[0, 8, 2]",There is a diamond.,0,,"[1, 0]",False,True,alternative,10.611366666666667,False,3 + 2 = ?,"[8, 0, 0]","[2, 0, 0]",4266,5 + 9 = ?,"[1, 0]"
1,,1,1,1112,undefined,0,filler,"[0, 5, 9]",,1,,2,3,"[4, 8, 5]",,"[7, 2, 4]",There is a circle.,1,,"[0, 1]",True,True,alternative,10.611366666666667,True,There is a heart.,"[0, 0, 0]","[0, 0, 0]",4098,There is a diamond.,"[0, 1]"
0,,1,0,1618,undefined,0,response,"[9, 2, 7]",,0,,0,3,"[2, 4, 9]",,"[0, 8, 7]",Some of the symbols are diamonds.,1,,"[0, 1]",True,True,alternative,10.611366666666667,True,Some of the symbols are ticks.,"[0, 0, 0]","[0, 0, 0]",6256,Some of the symbols are triangles.,"[1, 0]"
0,,0,1,1749,undefined,1,response,"[2, 4, 0]",,0,,2,3,"[7, 4, 5]",,"[8, 5, 6]",There is a note.,0,,"[1, 0]",False,True,alternative,10.611366666666667,False,There is a circle.,"[0, 0, 0]","[0, 0, 0]",6591,There is a tick.,"[1, 0]"
1,,0,1,2237,undefined,1,response,"[0, 2, 1]",,1,,0,3,"[0, 7, 3]",,"[5, 1, 9]",Some of the symbols are squares.,0,,"[1, 0]",True,True,alternative,10.611366666666667,True,Some of the symbols are diamonds.,"[0, 0, 0]","[0, 0, 0]",9698,Some of the symbols are diamonds.,"[0, 1]"
1,,0,1,1873,undefined,2,response,"[1, 9, 3]",,1,,0,3,"[0, 2, 5]",,"[8, 7, 3]",Some of the symbols are notes.,0,,"[1, 0]",True,True,alternative,10.611366666666667,True,All of the symbols are diamonds.,"[0, 0, 0]","[0, 0, 0]",4925,All of the symbols are clubs.,"[0, 1]"
1,,0,1,1781,undefined,1,response,"[9, 2, 4]",,1,,0,3,"[2, 5, 7]",,"[4, 9, 1]",Some of the symbols are hearts.,0,,"[1, 0]",True,True,alternative,10.611366666666667,True,Some of the symbols are ticks.,"[0, 0, 0]","[0, 0, 0]",4922,Some of the symbols are triangles.,"[0, 1]"
0,,0,0,1097,undefined,1,filler,"[2, 6, 4]",,1,,1,3,"[5, 1, 2]",,"[4, 2, 9]",There are four hearts.,0,,"[1, 0]",True,True,alternative,10.611366666666667,True,There are four squares.,"[0, 0, 0]","[0, 0, 0]",3416,There are four ticks.,"[1, 0]"
1,,1,1,1425,undefined,1,filler,"[5, 4, 0]",,1,,1,3,"[1, 8, 5]",,"[8, 7, 1]",There are four notes.,1,,"[0, 1]",True,True,alternative,10.611366666666667,True,There are four clubs.,"[0, 0, 0]","[0, 0, 0]",3567,There are four squares.,"[0, 1]"
0,,0,0,1713,undefined,0,response,"[3, 1, 4]",,1,,1,3,"[2, 1, 8]",,"[5, 1, 2]",There are four squares.,0,,"[1, 0]",True,True,alternative,10.611366666666667,True,There are four ticks.,"[0, 0, 0]","[0, 0, 0]",4396,There are four spades.,"[1, 0]"
0,,1,1,1735,undefined,1,filler,"[7, 2, 4]",,1,,2,3,"[8, 9, 4]",,"[7, 2, 8]",There is a circle.,0,,"[0, 1]",False,False,alternative,10.611366666666667,False,There is a note.,"[0, 0, 0]","[0, 0, 0]",6649,There is a circle.,"[1, 0]"
1,,1,0,1707,undefined,3,response,"[15, 7, 8]",,1,,1,3,"[13, 9, 4]",,"[6, 3, 7]",There are four stars.,1,,"[0, 1]",False,True,alternative,10.611366666666667,False,9 + 4 = ?,"[0, 0, 0]","[2, 0, 0]",5937,7 + 8 = ?,"[0, 1]"
1,,1,1,2113,undefined,2,response,"[9, 3, 6]",,1,,1,3,"[4, 5, 0]",,"[1, 3, 6]",There are four clubs.,1,,"[0, 1]",True,True,alternative,10.611366666666667,True,There are six hearts.,"[0, 0, 0]","[0, 0, 0]",5521,There are six triangles.,"[0, 1]"
1,,0,1,2656,undefined,2,response,"[4, 9, 8]",,0,,2,3,"[8, 7, 1]",,"[7, 4, 3]",There is a circle.,0,,"[1, 0]",True,True,alternative,10.611366666666667,True,There is a note and a circle.,"[0, 0, 0]","[0, 0, 0]",6194,There is a heart and a triangle.,"[0, 1]"
1,,1,1,1756,undefined,0,filler,"[6, 3, 7]",,1,,0,3,"[9, 5, 6]",,"[6, 7, 0]",Some of the symbols are stars.,1,,"[0, 1]",True,True,alternative,10.611366666666667,True,Some of the symbols are triangles.,"[0, 0, 0]","[0, 0, 0]",6255,Some of the symbols are stars.,"[0, 1]"
1,,0,1,1610,undefined,1,response,"[9, 6, 3]",,1,,1,3,"[5, 7, 1]",,"[7, 0, 2]",There are four circles.,0,,"[1, 0]",True,True,alternative,10.611366666666667,True,There are four squares.,"[0, 0, 0]","[0, 0, 0]",4186,There are four triangles.,"[0, 1]"
1,,1,1,1287,undefined,0,filler,"[7, 4, 5]",,1,,2,3,"[2, 3, 6]",,"[4, 8, 7]",There is a heart.,1,,"[0, 1]",True,True,alternative,10.611366666666667,True,There is a tick.,"[0, 0, 0]","[0, 0, 0]",3746,There is a circle.,"[0, 1]"
1,,0,0,1676,undefined,1,response,"[0, 3, 6]",,0,,2,3,"[6, 8, 4]",,"[9, 4, 8]",There is a triangle.,1,,"[1, 0]",False,False,alternative,10.611366666666667,False,There is a star.,"[0, 0, 0]","[0, 0, 0]",4678,There is a diamond.,"[0, 1]"
0,,0,0,2188,undefined,3,response,"[12, 4, 8]",,1,,0,3,"[5, 3, 2]",,"[8, 5, 7]",Some of the symbols are notes.,1,,"[1, 0]",False,False,alternative,10.611366666666667,True,3 + 2 = ?,"[6, 0, 0]","[6, 0, 0]",6144,4 + 8 = ?,"[1, 0]"
0,,0,0,2294,undefined,2,response,"[7, 9, 8]",,0,,0,3,"[8, 7, 9]",,"[4, 6, 7]",Some of the symbols are hearts.,0,,"[1, 0]",True,True,alternative,10.611366666666667,True,All of the symbols are notes.,"[0, 0, 0]","[0, 0, 0]",5853,All of the symbols are circles.,"[1, 0]"
1,,0,0,1126,undefined,1,response,"[0, 4, 6]",,0,,2,3,"[3, 8, 9]",,"[6, 8, 4]",There is a star.,1,,"[1, 0]",False,False,alternative,10.611366666666667,False,There is a spade.,"[0, 0, 0]","[0, 0, 0]",5470,There is a diamond.,"[0, 1]"
0,,1,1,1208,undefined,1,response,"[4, 0, 5]",,0,,2,3,"[6, 1, 2]",,"[8, 3, 7]",There is a note.,0,,"[0, 1]",False,False,alternative,10.611366666666667,False,There is a star.,"[0, 0, 0]","[0, 0, 0]",4157,There is a heart.,"[1, 0]"
1,,1,1,2461,undefined,2,response,"[6, 9, 0]",,0,,2,3,"[5, 2, 1]",,"[6, 9, 7]",There is a star.,1,,"[0, 1]",True,True,alternative,10.611366666666667,True,There is a square and a tick.,"[0, 0, 0]","[0, 0, 0]",7073,There is a star and a triangle.,"[0, 1]"
0,,0,0,1720,undefined,1,filler,"[5, 3, 9]",,1,,0,3,"[9, 5, 4]",,"[1, 9, 5]",Some of the symbols are clubs.,0,,"[1, 0]",True,True,alternative,10.611366666666667,True,Some of the symbols are triangles.,"[0, 0, 0]","[0, 0, 0]",6277,Some of the symbols are squares.,"[1, 0]"
0,,1,0,1492,undefined,2,filler,"[3, 8, 1]",,1,,0,3,"[7, 0, 3]",,"[3, 4, 0]",Some of the symbols are spades.,1,,"[0, 1]",True,True,alternative,10.611366666666667,True,All of the symbols are circles.,"[0, 0, 0]","[0, 0, 0]",4612,All of the symbols are spades.,"[1, 0]"
0,,1,0,2551,undefined,3,response,"[9, 3, 6]",,1,,0,3,"[5, 5, 0]",,"[3, 7, 2]",Some of the symbols are spades.,1,,"[0, 1]",True,True,alternative,10.611366666666667,True,5 + 0 = ?,"[6, 0, 0]","[10, 0, 0]",5775,3 + 6 = ?,"[1, 0]"
1,,0,1,1301,undefined,3,filler,"[8, 4, 4]",,1,,2,3,"[10, 7, 3]",,"[4, 6, 9]",There is a heart.,0,,"[1, 0]",True,True,alternative,10.611366666666667,True,7 + 3 = ?,"[5, 0, 0]","[1, 0, 0]",3798,4 + 4 = ?,"[0, 1]"
1,,0,1,1529,undefined,2,filler,"[0, 3, 2]",,1,,1,3,"[5, 1, 3]",,"[2, 5, 0]",There are four ticks.,0,,"[1, 0]",True,True,alternative,10.611366666666667,True,There are six squares.,"[0, 0, 0]","[0, 0, 0]",3639,There are six diamonds.,"[0, 1]"
0,,1,0,1098,undefined,2,filler,"[8, 0, 2]",,1,,1,3,"[1, 2, 8]",,"[2, 6, 9]",There are four ticks.,1,,"[0, 1]",True,True,alternative,10.611366666666667,True,There are six clubs.,"[0, 0, 0]","[0, 0, 0]",6125,There are six notes.,"[1, 0]"
0,,0,0,2629,undefined,0,response,"[3, 9, 5]",,0,,2,3,"[7, 4, 2]",,"[3, 8, 9]",There is a spade.,0,,"[1, 0]",True,True,alternative,10.611366666666667,True,There is a circle.,"[0, 0, 0]","[0, 0, 0]",6449,There is a spade.,"[1, 0]"
0,,1,0,2541,undefined,0,response,"[6, 2, 8]",,1,,0,3,"[2, 0, 5]",,"[9, 7, 1]",Some of the symbols are triangles.,1,,"[0, 1]",True,True,alternative,10.611366666666667,True,Some of the symbols are ticks.,"[0, 0, 0]","[0, 0, 0]",7781,Some of the symbols are stars.,"[1, 0]"
0,,1,1,1386,undefined,3,response,"[10, 8, 2]",,1,,1,3,"[5, 3, 2]",,"[7, 4, 1]",There are four circles.,0,,"[0, 1]",False,False,alternative,10.611366666666667,False,3 + 2 = ?,"[2, 0, 0]","[9, 0, 0]",5325,8 + 2 = ?,"[1, 0]"
1,,0,0,1129,undefined,3,filler,"[8, 3, 5]",,1,,1,3,"[16, 8, 8]",,"[7, 0, 6]",There are four circles.,1,,"[1, 0]",False,False,alternative,10.611366666666667,False,8 + 8 = ?,"[2, 0, 0]","[4, 0, 0]",4550,3 + 5 = ?,"[0, 1]"
0,,1,0,1073,undefined,1,filler,"[0, 6, 4]",,1,,1,3,"[4, 3, 0]",,"[7, 0, 3]",There are four circles.,1,,"[0, 1]",True,True,alternative,10.611366666666667,True,There are four hearts.,"[0, 0, 0]","[0, 0, 0]",3371,There are four diamonds.,"[1, 0]"
0,,0,0,1064,undefined,1,response,"[0, 7, 6]",,1,,0,3,"[3, 9, 1]",,"[2, 4, 9]",Some of the symbols are ticks.,0,,"[1, 0]",True,True,alternative,10.611366666666667,True,Some of the symbols are spades.,"[0, 0, 0]","[0, 0, 0]",5871,Some of the symbols are diamonds.,"[1, 0]"
0,,1,0,1157,undefined,0,filler,"[9, 6, 2]",,1,,1,3,"[6, 9, 8]",,"[7, 3, 4]",There are four circles.,1,,"[0, 1]",True,True,alternative,10.611366666666667,True,There are four stars.,"[0, 0, 0]","[0, 0, 0]",3611,There are four triangles.,"[1, 0]"
1,,1,1,1725,undefined,3,filler,"[16, 7, 9]",,1,,0,3,"[9, 8, 1]",,"[5, 6, 2]",Some of the symbols are squares.,0,,"[0, 1]",False,False,alternative,10.611366666666667,True,8 + 1 = ?,"[3, 0, 0]","[6, 0, 0]",6024,7 + 9 = ?,"[0, 1]"
0,,1,0,1428,undefined,0,response,"[2, 5, 0]",,0,,2,3,"[4, 7, 3]",,"[7, 9, 4]",There is a circle.,1,,"[0, 1]",True,True,alternative,10.611366666666667,True,There is a heart.,"[0, 0, 0]","[0, 0, 0]",4040,There is a tick.,"[1, 0]"
0,,1,0,3700,undefined,0,response,"[3, 2, 6]",,0,,2,3,"[2, 8, 9]",,"[7, 6, 2]",There is a circle.,1,,"[0, 1]",True,True,alternative,10.611366666666667,True,There is a tick.,"[0, 0, 0]","[0, 0, 0]",6539,There is a spade.,"[1, 0]"
0,,0,1,1026,undefined,3,filler,"[15, 7, 8]",,1,,1,3,"[9, 7, 2]",,"[4, 0, 2]",There are four hearts.,0,,"[1, 0]",False,True,alternative,10.611366666666667,False,7 + 2 = ?,"[0, 0, 0]","[9, 0, 0]",4821,7 + 8 = ?,"[1, 0]"
0,,1,0,1791,undefined,3,filler,"[7, 7, 0]",,1,,0,3,"[12, 4, 8]",,"[6, 3, 7]",Some of the symbols are stars.,1,,"[0, 1]",True,True,alternative,10.611366666666667,True,4 + 8 = ?,"[4, 0, 0]","[4, 0, 0]",4498,7 + 0 = ?,"[1, 0]"
0,,0,0,1656,undefined,3,response,"[17, 9, 8]",,1,,1,3,"[4, 2, 2]",,"[7, 4, 1]",There are four circles.,1,,"[1, 0]",False,False,alternative,10.611366666666667,True,2 + 2 = ?,"[2, 0, 0]","[9, 0, 0]",5598,9 + 8 = ?,"[1, 0]"
0,,0,0,2143,undefined,2,filler,"[3, 1, 7]",,1,,0,3,"[0, 4, 7]",,"[2, 1, 4]",Some of the symbols are ticks.,0,,"[1, 0]",True,True,alternative,10.611366666666667,True,All of the symbols are diamonds.,"[0, 0, 0]","[0, 0, 0]",7565,All of the symbols are spades.,"[1, 0]"
1,,1,1,1642,undefined,1,response,"[8, 7, 6]",,1,,1,3,"[5, 6, 0]",,"[7, 4, 1]",There are four circles.,1,,"[0, 1]",True,True,alternative,10.611366666666667,True,There are four squares.,"[0, 0, 0]","[0, 0, 0]",6352,There are four notes.,"[0, 1]"
0,,1,0,961,undefined,0,filler,"[2, 0, 5]",,1,,1,3,"[2, 3, 8]",,"[9, 2, 3]",There are four triangles.,1,,"[0, 1]",True,True,alternative,10.611366666666667,True,There are four ticks.,"[0, 0, 0]","[0, 0, 0]",3334,There are four ticks.,"[1, 0]"
0,,0,1,2401,undefined,3,filler,"[13, 5, 8]",,1,,0,3,"[10, 9, 1]",,"[4, 9, 5]",Some of the symbols are hearts.,0,,"[1, 0]",False,True,alternative,10.611366666666667,False,9 + 1 = ?,"[2, 0, 0]","[7, 0, 0]",5457,5 + 8 = ?,"[1, 0]"
1,,1,0,1188,undefined,3,response,"[12, 9, 3]",,0,,2,3,"[11, 6, 5]",,"[5, 6, 1]",There is a square.,1,,"[0, 1]",False,True,alternative,10.611366666666667,False,6 + 5 = ?,"[1, 0, 0]","[0, 0, 0]",4021,9 + 3 = ?,"[0, 1]"
0,,1,0,1428,undefined,1,filler,"[9, 6, 5]",,1,,0,3,"[2, 3, 0]",,"[7, 5, 2]",Some of the symbols are circles.,1,,"[0, 1]",True,True,alternative,10.611366666666667,True,Some of the symbols are ticks.,"[0, 0, 0]","[0, 0, 0]",4316,Some of the symbols are triangles.,"[1, 0]"
0,,0,0,1532,undefined,2,response,"[3, 0, 9]",,0,,2,3,"[3, 0, 5]",,"[2, 1, 6]",There is a tick.,0,,"[1, 0]",True,True,alternative,10.611366666666667,True,There is a spade and a diamond.,"[0, 0, 0]","[0, 0, 0]",9838,There is a spade and a diamond.,"[1, 0]"
1,,0,1,3263,undefined,2,filler,"[1, 4, 2]",,1,,0,3,"[3, 1, 4]",,"[6, 4, 2]",Some of the symbols are stars.,0,,"[1, 0]",True,True,alternative,10.611366666666667,True,All of the symbols are spades.,"[0, 0, 0]","[0, 0, 0]",8017,All of the symbols are clubs.,"[0, 1]"
1,,1,1,3535,undefined,1,response,"[4, 3, 5]",,1,,0,3,"[1, 6, 0]",,"[9, 0, 3]",Some of the symbols are triangles.,1,,"[0, 1]",True,True,alternative,10.611366666666667,True,Some of the symbols are clubs.,"[0, 0, 0]","[0, 0, 0]",8435,Some of the symbols are hearts.,"[0, 1]"
1,,0,1,1230,undefined,2,filler,"[5, 6, 0]",,1,,1,3,"[7, 8, 0]",,"[5, 7, 3]",There are four squares.,0,,"[1, 0]",True,True,alternative,10.611366666666667,True,There are six circles.,"[0, 0, 0]","[0, 0, 0]",4064,There are six squares.,"[0, 1]"
1,,0,1,1424,undefined,0,response,"[2, 0, 5]",,0,,2,3,"[6, 2, 3]",,"[1, 0, 7]",There is a club.,0,,"[1, 0]",True,True,alternative,10.611366666666667,True,There is a star.,"[0, 0, 0]","[0, 0, 0]",4149,There is a tick.,"[0, 1]"
1,,0,0,1421,undefined,3,response,"[13, 7, 6]",,1,,0,3,"[10, 5, 5]",,"[4, 5, 1]",Some of the symbols are hearts.,1,,"[1, 0]",False,False,alternative,10.611366666666667,False,5 + 5 = ?,"[1, 0, 0]","[5, 0, 0]",4482,7 + 6 = ?,"[0, 1]"
0,,1,0,1754,undefined,2,response,"[4, 8, 5]",,1,,1,3,"[9, 6, 1]",,"[9, 2, 3]",There are four triangles.,1,,"[0, 1]",True,True,alternative,10.611366666666667,True,There are six triangles.,"[0, 0, 0]","[0, 0, 0]",4292,There are six hearts.,"[1, 0]"
1,,1,1,1298,undefined,0,response,"[9, 4, 1]",,1,,1,3,"[4, 7, 6]",,"[8, 7, 1]",There are four notes.,1,,"[0, 1]",True,True,alternative,10.611366666666667,True,There are four hearts.,"[0, 0, 0]","[0, 0, 0]",4099,There are four triangles.,"[0, 1]"
1,,1,1,1072,undefined,3,response,"[5, 5, 0]",,0,,2,3,"[8, 0, 8]",,"[4, 8, 7]",There is a heart.,0,,"[0, 1]",False,False,alternative,10.611366666666667,True,0 + 8 = ?,"[9, 0, 0]","[6, 0, 0]",5240,5 + 0 = ?,"[0, 1]"
0,,0,0,3427,undefined,0,filler,"[9, 2, 4]",,1,,0,3,"[0, 8, 3]",,"[1, 5, 2]",Some of the symbols are clubs.,0,,"[1, 0]",True,True,alternative,10.611366666666667,True,Some of the symbols are diamonds.,"[0, 0, 0]","[0, 0, 0]",7229,Some of the symbols are triangles.,"[1, 0]"
1,,0,1,1426,undefined,2,filler,"[2, 3, 8]",,1,,1,3,"[3, 8, 4]",,"[0, 2, 6]",There are four diamonds.,0,,"[1, 0]",True,True,alternative,10.611366666666667,True,There are six spades.,"[0, 0, 0]","[0, 0, 0]",4367,There are six ticks.,"[0, 1]"
1,,1,1,1358,undefined,0,filler,"[8, 0, 7]",,1,,2,3,"[4, 0, 5]",,"[5, 0, 2]",There is a square.,1,,"[0, 1]",True,True,alternative,10.611366666666667,True,There is a heart.,"[0, 0, 0]","[0, 0, 0]",3824,There is a note.,"[0, 1]"
1,,1,1,2269,undefined,2,response,"[8, 0, 5]",,1,,0,3,"[5, 8, 3]",,"[1, 3, 9]",Some of the symbols are clubs.,1,,"[0, 1]",True,True,alternative,10.611366666666667,True,All of the symbols are squares.,"[0, 0, 0]","[0, 0, 0]",5580,All of the symbols are notes.,"[0, 1]"
1,,1,0,1314,undefined,1,filler,"[1, 8, 5]",,1,,2,3,"[2, 9, 7]",,"[7, 1, 9]",There is a circle.,0,,"[0, 1]",False,False,alternative,10.611366666666667,False,There is a tick.,"[0, 0, 0]","[0, 0, 0]",3810,There is a club.,"[0, 1]"
0,,0,1,1109,undefined,1,filler,"[8, 0, 2]",,1,,2,3,"[0, 6, 5]",,"[4, 2, 1]",There is a heart.,1,,"[1, 0]",False,False,alternative,10.611366666666667,False,There is a diamond.,"[0, 0, 0]","[0, 0, 0]",4061,There is a note.,"[1, 0]"
0,,1,0,1572,undefined,1,filler,"[3, 0, 9]",,1,,0,3,"[3, 5, 7]",,"[8, 7, 4]",Some of the symbols are notes.,1,,"[0, 1]",True,True,alternative,10.611366666666667,True,Some of the symbols are spades.,"[0, 0, 0]","[0, 0, 0]",7083,Some of the symbols are spades.,"[1, 0]"
0,,1,0,1362,undefined,3,filler,"[8, 3, 5]",,1,,2,3,"[9, 6, 3]",,"[1, 2, 5]",There is a club.,1,,"[0, 1]",True,True,alternative,10.611366666666667,True,6 + 3 = ?,"[7, 0, 0]","[0, 0, 0]",5721,3 + 5 = ?,"[1, 0]"
1,,0,1,1539,undefined,0,filler,"[4, 7, 3]",,1,,0,3,"[2, 3, 0]",,"[5, 4, 7]",Some of the symbols are squares.,0,,"[1, 0]",True,True,alternative,10.611366666666667,True,Some of the symbols are ticks.,"[0, 0, 0]","[0, 0, 0]",4266,Some of the symbols are hearts.,"[0, 1]"
0,,0,0,1919,undefined,3,filler,"[10, 9, 1]",,1,,1,3,"[5, 5, 0]",,"[4, 8, 5]",There are four hearts.,1,,"[1, 0]",False,False,alternative,10.611366666666667,True,5 + 0 = ?,"[0, 0, 0]","[4, 0, 0]",4334,9 + 1 = ?,"[1, 0]"
0,,0,0,1765,undefined,1,filler,"[9, 6, 7]",,1,,0,3,"[6, 0, 2]",,"[2, 3, 7]",Some of the symbols are ticks.,0,,"[1, 0]",True,True,alternative,10.611366666666667,True,Some of the symbols are stars.,"[0, 0, 0]","[0, 0, 0]",5471,Some of the symbols are triangles.,"[1, 0]"
0,,1,0,1461,undefined,2,response,"[9, 5, 1]",,1,,1,3,"[4, 9, 6]",,"[0, 1, 3]",There are four diamonds.,1,,"[0, 1]",True,True,alternative,10.611366666666667,True,There are six hearts.,"[0, 0, 0]","[0, 0, 0]",5358,There are six triangles.,"[1, 0]"
1,,1,1,1293,undefined,3,response,"[3, 3, 0]",,0,,2,3,"[12, 8, 4]",,"[6, 7, 3]",There is a star.,0,,"[0, 1]",False,False,alternative,10.611366666666667,True,8 + 4 = ?,"[9, 0, 0]","[0, 0, 0]",4311,3 + 0 = ?,"[0, 1]"
0,,1,0,1284,undefined,2,filler,"[8, 0, 2]",,1,,2,3,"[7, 1, 6]",,"[4, 7, 1]",There is a heart.,1,,"[0, 1]",True,True,alternative,10.611366666666667,True,There is a circle and a club.,"[0, 0, 0]","[0, 0, 0]",5155,There is a note and a diamond.,"[1, 0]"
0,,1,0,1099,undefined,1,response,"[5, 1, 6]",,1,,1,3,"[3, 0, 7]",,"[4, 7, 6]",There are four hearts.,1,,"[0, 1]",True,True,alternative,10.611366666666667,True,There are four spades.,"[0, 0, 0]","[0, 0, 0]",3926,There are four squares.,"[1, 0]"
0,,1,0,3334,undefined,2,response,"[8, 6, 2]",,0,,2,3,"[9, 6, 0]",,"[7, 5, 6]",There is a circle.,1,,"[0, 1]",True,True,alternative,10.611366666666667,True,There is a triangle and a star.,"[0, 0, 0]","[0, 0, 0]",8530,There is a note and a star.,"[1, 0]"
,"[0, 'Sarah']",,,,undefined,,,,bot_check,,Sarah,,4,,,,,,1,,,,,19.68465,,,,,,,
0,,1,0,3803,undefined,3,response,"[6, 0, 6]",,0,,2,4,"[17, 8, 9]",,"[6, 7, 8]",There is a star.,1,,"[0, 1]",True,True,alternative,19.68465,True,8 + 9 = ?,"[6, 0, 0]","[2, 0, 0]",18087,0 + 6 = ?,"[1, 0]"
0,,0,1,5046,undefined,3,filler,"[10, 4, 6]",,0,,2,4,"[13, 6, 7]",,"[9, 5, 4]",There is a triangle.,0,,"[1, 0]",False,True,alternative,19.68465,False,6 + 7 = ?,"[5, 0, 0]","[9, 0, 0]",11064,4 + 6 = ?,"[1, 0]"
0,,0,0,7989,undefined,2,response,"[2, 8, 6]",,0,,2,4,"[1, 5, 0]",,"[1, 6, 2]",There is a club.,0,,"[1, 0]",True,True,alternative,19.68465,True,There is a club and a square.,"[0, 0, 0]","[0, 0, 0]",30020,There is a tick and a note.,"[1, 0]"
0,,0,0,8488,undefined,3,response,"[11, 9, 2]",,1,,1,4,"[4, 3, 1]",,"[9, 4, 6]",There are four triangles.,1,,"[1, 0]",False,False,alternative,19.68465,True,3 + 1 = ?,"[7, 0, 0]","[7, 0, 0]",12996,9 + 2 = ?,"[1, 0]"
1,,1,0,6622,undefined,3,response,"[13, 4, 9]",,0,,0,4,"[10, 1, 9]",,"[8, 4, 3]",Some of the symbols are notes.,1,,"[0, 1]",False,True,alternative,19.68465,False,1 + 9 = ?,"[1, 0, 0]","[6, 0, 0]",13078,4 + 9 = ?,"[0, 1]"
1,,0,1,2927,undefined,2,response,"[5, 8, 3]",,0,,0,4,"[0, 1, 3]",,"[0, 3, 7]",Some of the symbols are diamonds.,0,,"[1, 0]",True,True,alternative,19.68465,True,All of the symbols are diamonds.,"[0, 0, 0]","[0, 0, 0]",9474,All of the symbols are squares.,"[0, 1]"
0,,0,0,4192,undefined,3,filler,"[0, 0, 0]",,1,,2,4,"[10, 8, 2]",,"[2, 4, 5]",There is a tick.,1,,"[1, 0]",False,False,alternative,19.68465,True,8 + 2 = ?,"[1, 0, 0]","[7, 0, 0]",8275,0 + 0 = ?,"[1, 0]"
0,,0,1,3684,undefined,1,filler,"[3, 7, 1]",,1,,0,4,"[2, 7, 8]",,"[9, 3, 0]",Some of the symbols are triangles.,1,,"[1, 0]",False,False,alternative,19.68465,False,Some of the symbols are ticks.,"[0, 0, 0]","[0, 0, 0]",10699,Some of the symbols are spades.,"[1, 0]"
1,,0,1,2735,undefined,2,filler,"[0, 8, 3]",,1,,0,4,"[3, 0, 5]",,"[0, 8, 7]",Some of the symbols are diamonds.,0,,"[1, 0]",True,True,alternative,19.68465,True,All of the symbols are spades.,"[0, 0, 0]","[0, 0, 0]",8538,All of the symbols are diamonds.,"[0, 1]"
1,,0,1,2221,undefined,0,response,"[3, 2, 4]",,0,,2,4,"[2, 9, 6]",,"[1, 9, 4]",There is a club.,0,,"[1, 0]",True,True,alternative,19.68465,True,There is a tick.,"[0, 0, 0]","[0, 0, 0]",11455,There is a spade.,"[0, 1]"
1,,1,0,3959,undefined,3,filler,"[4, 2, 2]",,0,,2,4,"[9, 3, 6]",,"[8, 1, 2]",There is a note.,1,,"[0, 1]",False,True,alternative,19.68465,False,3 + 6 = ?,"[1, 0, 0]","[8, 0, 0]",8470,2 + 2 = ?,"[0, 1]"
0,,1,0,2632,undefined,0,response,"[0, 3, 6]",,0,,2,4,"[5, 3, 6]",,"[2, 8, 7]",There is a tick.,1,,"[0, 1]",True,True,alternative,19.68465,True,There is a square.,"[0, 0, 0]","[0, 0, 0]",7706,There is a diamond.,"[1, 0]"
1,,0,0,2346,undefined,3,response,"[5, 4, 1]",,0,,1,4,"[5, 0, 5]",,"[2, 1, 6]",There are four ticks.,1,,"[1, 0]",False,False,alternative,19.68465,False,0 + 5 = ?,"[7, 0, 0]","[1, 0, 0]",7158,4 + 1 = ?,"[0, 1]"
0,,1,0,2485,undefined,0,filler,"[9, 1, 2]",,1,,0,4,"[8, 0, 3]",,"[7, 9, 6]",Some of the symbols are circles.,1,,"[0, 1]",True,True,alternative,19.68465,True,Some of the symbols are notes.,"[0, 0, 0]","[0, 0, 0]",9550,Some of the symbols are triangles.,"[1, 0]"
0,,1,0,2553,undefined,3,filler,"[9, 9, 0]",,0,,0,4,"[9, 8, 1]",,"[8, 2, 1]",Some of the symbols are notes.,1,,"[0, 1]",True,True,alternative,19.68465,True,8 + 1 = ?,"[8, 0, 0]","[0, 0, 0]",6921,9 + 0 = ?,"[1, 0]"
1,,0,1,7746,undefined,0,response,"[1, 2, 6]",,0,,1,4,"[4, 2, 5]",,"[4, 7, 2]",There are four hearts.,0,,"[1, 0]",True,True,alternative,19.68465,True,There are four hearts.,"[0, 0, 0]","[0, 0, 0]",14675,There are four clubs.,"[0, 1]"
0,,0,0,2768,undefined,1,response,"[5, 1, 2]",,0,,2,4,"[2, 1, 0]",,"[5, 8, 0]",There is a square.,0,,"[1, 0]",True,True,alternative,19.68465,True,There is a tick.,"[0, 0, 0]","[0, 0, 0]",8104,There is a square.,"[1, 0]"
1,,1,1,3494,undefined,3,response,"[3, 0, 3]",,0,,2,4,"[9, 3, 6]",,"[0, 1, 9]",There is a diamond.,0,,"[0, 1]",False,False,alternative,19.68465,True,3 + 6 = ?,"[8, 0, 0]","[9, 0, 0]",7124,0 + 3 = ?,"[0, 1]"
1,,0,1,2570,undefined,0,filler,"[8, 0, 5]",,1,,0,4,"[4, 6, 9]",,"[4, 5, 8]",Some of the symbols are hearts.,0,,"[1, 0]",True,True,alternative,19.68465,True,Some of the symbols are hearts.,"[0, 0, 0]","[0, 0, 0]",8097,Some of the symbols are notes.,"[0, 1]"
1,,0,1,4045,undefined,1,filler,"[2, 1, 6]",,1,,1,4,"[3, 9, 1]",,"[9, 3, 7]",There are four triangles.,0,,"[1, 0]",True,True,alternative,19.68465,True,There are four spades.,"[0, 0, 0]","[0, 0, 0]",9251,There are four ticks.,"[0, 1]"
0,,0,0,2833,undefined,1,filler,"[6, 8, 3]",,1,,2,4,"[9, 6, 1]",,"[1, 6, 7]",There is a club.,0,,"[1, 0]",True,True,alternative,19.68465,True,There is a triangle.,"[0, 0, 0]","[0, 0, 0]",13477,There is a star.,"[1, 0]"
1,,1,0,1792,undefined,3,filler,"[7, 1, 6]",,1,,1,4,"[12, 6, 6]",,"[9, 4, 3]",There are four triangles.,1,,"[0, 1]",False,True,alternative,19.68465,False,6 + 6 = ?,"[5, 0, 0]","[3, 0, 0]",5565,1 + 6 = ?,"[0, 1]"
0,,1,1,2133,undefined,0,response,"[5, 9, 3]",,1,,1,4,"[1, 0, 3]",,"[8, 6, 0]",There are four notes.,1,,"[0, 1]",False,True,alternative,19.68465,False,There are four clubs.,"[0, 0, 0]","[0, 0, 0]",12156,There are four squares.,"[1, 0]"
1,,1,1,3090,undefined,0,response,"[0, 4, 2]",,0,,1,4,"[7, 2, 9]",,"[9, 5, 6]",There are four triangles.,1,,"[0, 1]",True,True,alternative,19.68465,True,There are four circles.,"[0, 0, 0]","[0, 0, 0]",7289,There are four diamonds.,"[0, 1]"
0,,1,1,3103,undefined,3,response,"[14, 6, 8]",,1,,0,4,"[4, 2, 2]",,"[0, 1, 3]",Some of the symbols are diamonds.,0,,"[0, 1]",False,False,alternative,19.68465,False,2 + 2 = ?,"[3, 0, 0]","[4, 0, 0]",8018,6 + 8 = ?,"[1, 0]"
0,,0,0,2377,undefined,2,filler,"[7, 3, 2]",,1,,1,4,"[6, 3, 1]",,"[4, 1, 2]",There are four hearts.,0,,"[1, 0]",True,True,alternative,19.68465,True,There are six stars.,"[0, 0, 0]","[0, 0, 0]",6006,There are six circles.,"[1, 0]"
0,,0,0,2410,undefined,0,response,"[9, 8, 2]",,0,,0,4,"[7, 4, 6]",,"[9, 3, 6]",Some of the symbols are triangles.,0,,"[1, 0]",True,True,alternative,19.68465,True,Some of the symbols are circles.,"[0, 0, 0]","[0, 0, 0]",7168,Some of the symbols are triangles.,"[1, 0]"
1,,0,1,1919,undefined,2,response,"[1, 6, 5]",,1,,1,4,"[1, 8, 9]",,"[2, 5, 1]",There are four ticks.,0,,"[1, 0]",True,True,alternative,19.68465,True,There are six clubs.,"[0, 0, 0]","[0, 0, 0]",5839,There are six clubs.,"[0, 1]"
0,,1,0,1779,undefined,0,response,"[2, 3, 4]",,0,,2,4,"[8, 6, 1]",,"[7, 5, 6]",There is a circle.,1,,"[0, 1]",True,True,alternative,19.68465,True,There is a note.,"[0, 0, 0]","[0, 0, 0]",6160,There is a tick.,"[1, 0]"
0,,0,1,2258,undefined,3,filler,"[9, 2, 7]",,0,,1,4,"[12, 3, 9]",,"[4, 6, 9]",There are four hearts.,0,,"[1, 0]",False,True,alternative,19.68465,False,3 + 9 = ?,"[7, 0, 0]","[3, 0, 0]",6049,2 + 7 = ?,"[1, 0]"
0,,1,1,1675,undefined,3,response,"[11, 7, 4]",,0,,2,4,"[9, 6, 3]",,"[8, 5, 7]",There is a note.,0,,"[0, 1]",False,False,alternative,19.68465,False,6 + 3 = ?,"[10, 0, 0]","[3, 0, 0]",5154,7 + 4 = ?,"[1, 0]"
