slide_type,block_rt,workerid,response_rt,primeOShuffle,pTSentence,primeType,responseSymbols,btwncondition,trial_type,correctPOChoice,pTChoice,pOChoice,goodPTChoice,response,Answer.time_in_minutes,responseChoice,primeStrength,primeTShuffle,slide_number,pOSentence,pTwrongAnswer,pOwrongAnswer,audio,correctPChoices,responseSentence,pTSymbols,correctPTChoice,image,goodPOChoice,Answer.condition,pOSymbols
bot_check,,0,,,,,,,,,,,,"[0, 'Sarah']",17.529116666666667,,,,1,,,,,,,,,Sarah,,undefined,
,12639,0,5345,"[1, 0]",6 + 1 = ?,2,"[2, 0, 7]",alternative,filler,False,0,1,0,,17.529116666666667,1,3,"[1, 0]",,5 + 8 = ?,"[6, 0, 0]","[6, 0, 0]",,False,There is a tick.,"[7, 6, 1]",True,,0,undefined,"[13, 5, 8]"
,22971,0,5849,"[1, 0]",Some of the symbols are ticks.,0,"[6, 9, 4]",alternative,response,True,0,0,0,,17.529116666666667,1,1,"[1, 0]",,Some of the symbols are diamonds.,"[0, 0, 0]","[0, 0, 0]",,True,Some of the symbols are stars.,"[2, 4, 1]",True,,0,undefined,"[0, 8, 3]"
,10564,0,4519,"[0, 1]",1 + 4 = ?,0,"[4, 2, 1]",alternative,filler,True,0,1,1,,17.529116666666667,1,3,"[0, 1]",,2 + 2 = ?,"[9, 0, 0]","[7, 0, 0]",,False,Some of the symbols are hearts.,"[5, 1, 4]",False,,1,undefined,"[4, 2, 2]"
,14972,0,6691,"[1, 0]",There is a note.,2,"[9, 3, 2]",alternative,response,True,1,0,1,,17.529116666666667,1,1,"[0, 1]",,There is a square.,"[0, 0, 0]","[0, 0, 0]",,True,There is a triangle.,"[8, 2, 4]",True,,0,undefined,"[5, 3, 8]"
,10542,0,3003,"[1, 0]",Some of the symbols are hearts.,0,"[5, 2, 0]",alternative,filler,True,0,0,0,,17.529116666666667,1,1,"[1, 0]",,Some of the symbols are circles.,"[0, 0, 0]","[0, 0, 0]",,True,Some of the symbols are squares.,"[4, 3, 5]",True,,0,undefined,"[7, 0, 3]"
,20108,0,7283,"[1, 0]",Some of the symbols are hearts.,0,"[0, 4, 5]",alternative,response,True,0,0,0,,17.529116666666667,1,0,"[1, 0]",,Some of the symbols are diamonds.,"[0, 0, 0]","[0, 0, 0]",,True,Some of the symbols are diamonds.,"[4, 3, 0]",True,,0,undefined,"[0, 1, 9]"
,10690,0,3605,"[0, 1]",9 + 4 = ?,1,"[3, 8, 2]",alternative,filler,True,0,1,1,,17.529116666666667,1,3,"[0, 1]",,1 + 6 = ?,"[0, 0, 0]","[9, 0, 0]",,False,There are four spades.,"[13, 9, 4]",False,,1,undefined,"[7, 1, 6]"
,9628,0,3068,"[0, 1]",There is a circle.,2,"[1, 2, 4]",alternative,filler,True,0,1,0,,17.529116666666667,1,1,"[1, 0]",,There is a star.,"[0, 0, 0]","[0, 0, 0]",,True,There is a club.,"[7, 6, 2]",True,,1,undefined,"[6, 8, 9]"
,12064,0,3321,"[0, 1]",There is a square.,2,"[5, 1, 0]",alternative,filler,True,0,1,0,,17.529116666666667,1,0,"[1, 0]",,There is a tick.,"[0, 0, 0]","[0, 0, 0]",,True,There is a square.,"[5, 0, 4]",True,,1,undefined,"[2, 1, 3]"
,10048,0,4578,"[1, 0]",1 + 7 = ?,0,"[0, 6, 3]",alternative,filler,True,1,0,0,,17.529116666666667,1,3,"[1, 0]",,8 + 2 = ?,"[6, 0, 0]","[5, 0, 0]",,False,Some of the symbols are diamonds.,"[8, 1, 7]",False,,0,undefined,"[10, 8, 2]"
,12391,0,5199,"[1, 0]",2 + 8 = ?,2,"[4, 9, 1]",alternative,filler,True,1,0,0,,17.529116666666667,1,3,"[1, 0]",,0 + 8 = ?,"[7, 0, 0]","[5, 0, 0]",,False,There is a heart.,"[10, 2, 8]",False,,0,undefined,"[8, 0, 8]"
,10707,0,3927,"[0, 1]",There is a spade.,2,"[2, 0, 6]",alternative,filler,True,0,1,0,,17.529116666666667,1,1,"[1, 0]",,There is a diamond.,"[0, 0, 0]","[0, 0, 0]",,True,There is a tick.,"[3, 5, 6]",True,,1,undefined,"[0, 7, 4]"
,9713,0,2972,"[0, 1]",There are four ticks.,1,"[5, 9, 2]",alternative,filler,True,1,1,1,,17.529116666666667,1,1,"[0, 1]",,There are four diamonds.,"[0, 0, 0]","[0, 0, 0]",,True,There are four squares.,"[2, 5, 0]",True,,1,undefined,"[0, 4, 7]"
,19061,0,4994,"[0, 1]",Some of the symbols are ticks.,0,"[9, 6, 5]",alternative,response,True,1,1,1,,17.529116666666667,1,0,"[0, 1]",,Some of the symbols are hearts.,"[0, 0, 0]","[0, 0, 0]",,True,Some of the symbols are triangles.,"[2, 8, 7]",True,,1,undefined,"[4, 3, 2]"
,12026,0,5192,"[1, 0]",Some of the symbols are clubs.,0,"[3, 9, 4]",alternative,filler,True,1,0,1,,17.529116666666667,1,0,"[0, 1]",,Some of the symbols are circles.,"[0, 0, 0]","[0, 0, 0]",,True,Some of the symbols are spades.,"[1, 7, 4]",True,,0,undefined,"[7, 2, 5]"
,10230,0,3044,"[1, 0]",7 + 4 = ?,2,"[7, 9, 4]",alternative,filler,False,0,1,0,,17.529116666666667,1,3,"[1, 0]",,3 + 5 = ?,"[5, 0, 0]","[2, 0, 0]",,False,There is a circle.,"[11, 7, 4]",True,,0,undefined,"[8, 3, 5]"
,11767,0,3247,"[1, 0]",8 + 8 = ?,0,"[4, 1, 9]",alternative,filler,True,1,0,1,,17.529116666666667,1,3,"[0, 1]",,4 + 3 = ?,"[8, 0, 0]","[7, 0, 0]",,True,Some of the symbols are hearts.,"[16, 8, 8]",True,,0,undefined,"[7, 4, 3]"
,13594,0,7399,"[0, 1]",2 + 7 = ?,2,"[2, 7, 9]",alternative,response,False,1,0,0,,17.529116666666667,1,3,"[1, 0]",,7 + 0 = ?,"[10, 0, 0]","[6, 0, 0]",,False,There is a tick.,"[9, 2, 7]",False,,1,undefined,"[7, 7, 0]"
,10199,0,3533,"[1, 0]",Some of the symbols are squares.,0,"[5, 6, 0]",alternative,filler,True,0,0,0,,17.529116666666667,1,1,"[1, 0]",,Some of the symbols are ticks.,"[0, 0, 0]","[0, 0, 0]",,True,Some of the symbols are squares.,"[5, 6, 2]",True,,0,undefined,"[2, 8, 3]"
,9142,0,2964,"[0, 1]",There is a star.,2,"[5, 3, 6]",alternative,response,True,1,1,1,,17.529116666666667,0,0,"[0, 1]",,There is a tick.,"[0, 0, 0]","[0, 0, 0]",,True,There is a square.,"[6, 7, 9]",True,,1,undefined,"[2, 7, 9]"
,14860,0,4533,"[1, 0]",0 + 1 = ?,1,"[8, 5, 2]",alternative,filler,False,0,1,1,,17.529116666666667,1,3,"[0, 1]",,8 + 1 = ?,"[4, 0, 0]","[3, 0, 0]",,False,There are four notes.,"[1, 0, 1]",False,,0,undefined,"[9, 8, 1]"
,11667,0,4325,"[1, 0]",There are six circles.,1,"[5, 9, 2]",alternative,response,True,0,0,0,,17.529116666666667,1,2,"[1, 0]",,There are six notes.,"[0, 0, 0]","[0, 0, 0]",,True,There are four squares.,"[7, 5, 9]",True,,0,undefined,"[8, 3, 5]"
,11272,0,3487,"[1, 0]",There are four circles.,1,"[6, 3, 5]",alternative,filler,True,1,0,1,,17.529116666666667,1,1,"[0, 1]",,There are four spades.,"[0, 0, 0]","[0, 0, 0]",,True,There are four stars.,"[7, 6, 0]",True,,0,undefined,"[3, 0, 1]"
,11503,0,3121,"[1, 0]",Some of the symbols are hearts.,0,"[6, 1, 4]",alternative,response,True,1,0,1,,17.529116666666667,1,1,"[0, 1]",,Some of the symbols are diamonds.,"[0, 0, 0]","[0, 0, 0]",,True,Some of the symbols are stars.,"[4, 6, 8]",True,,0,undefined,"[0, 5, 3]"
,11112,0,3512,"[1, 0]",All of the symbols are triangles.,0,"[5, 6, 0]",alternative,filler,True,1,0,1,,17.529116666666667,1,2,"[0, 1]",,All of the symbols are circles.,"[0, 0, 0]","[0, 0, 0]",,True,Some of the symbols are squares.,"[9, 3, 1]",True,,0,undefined,"[7, 6, 2]"
,11868,0,3802,"[1, 0]",There is a star and a tick.,2,"[1, 9, 0]",alternative,filler,True,1,0,1,,17.529116666666667,1,2,"[0, 1]",,There is a triangle and a circle.,"[0, 0, 0]","[0, 0, 0]",,True,There is a club.,"[6, 2, 5]",True,,0,undefined,"[9, 7, 4]"
,9737,0,2894,"[0, 1]",There is a diamond and a spade.,2,"[5, 2, 0]",alternative,response,True,0,1,0,,17.529116666666667,1,2,"[1, 0]",,There is a heart and a spade.,"[0, 0, 0]","[0, 0, 0]",,True,There is a square.,"[0, 3, 1]",True,,1,undefined,"[4, 3, 0]"
,25065,0,14272,"[1, 0]",All of the symbols are circles.,0,"[9, 5, 8]",alternative,response,True,1,0,1,,17.529116666666667,1,2,"[0, 1]",,All of the symbols are squares.,"[0, 0, 0]","[0, 0, 0]",,True,Some of the symbols are triangles.,"[7, 9, 2]",True,,0,undefined,"[5, 2, 0]"
,31804,0,6214,"[0, 1]",There is a star and a note.,2,"[5, 3, 7]",alternative,response,True,0,1,0,,17.529116666666667,1,2,"[1, 0]",,There is a triangle and a square.,"[0, 0, 0]","[0, 0, 0]",,True,There is a square.,"[6, 8, 9]",True,,1,undefined,"[9, 5, 8]"
,5787,0,1967,"[0, 1]",There is a triangle.,2,"[5, 7, 6]",alternative,response,True,1,1,1,,17.529116666666667,1,1,"[0, 1]",,There is a diamond.,"[0, 0, 0]","[0, 0, 0]",,True,There is a square.,"[9, 6, 2]",True,,1,undefined,"[0, 5, 7]"
,8106,0,4192,"[0, 1]",3 + 0 = ?,1,"[0, 8, 6]",alternative,response,False,1,0,0,,17.529116666666667,1,3,"[1, 0]",,4 + 4 = ?,"[6, 0, 0]","[1, 0, 0]",,False,There are four diamonds.,"[3, 3, 0]",False,,1,undefined,"[8, 4, 4]"
,7808,0,2473,"[0, 1]",There is a circle.,2,"[2, 6, 7]",alternative,filler,True,0,1,0,,17.529116666666667,1,0,"[1, 0]",,There is a star.,"[0, 0, 0]","[0, 0, 0]",,True,There is a tick.,"[7, 3, 9]",True,,1,undefined,"[6, 0, 2]"
,6856,0,2700,"[0, 1]",4 + 6 = ?,0,"[2, 5, 3]",alternative,response,True,0,1,0,,17.529116666666667,1,3,"[1, 0]",,7 + 0 = ?,"[6, 0, 0]","[9, 0, 0]",,True,Some of the symbols are ticks.,"[10, 4, 6]",True,,1,undefined,"[7, 7, 0]"
,7900,0,3308,"[0, 1]",There are four triangles.,1,"[6, 9, 7]",alternative,filler,True,0,1,0,,17.529116666666667,1,1,"[1, 0]",,There are four circles.,"[0, 0, 0]","[0, 0, 0]",,True,There are four stars.,"[9, 0, 3]",True,,1,undefined,"[7, 8, 3]"
,7433,0,2582,"[1, 0]",There are six ticks.,1,"[3, 4, 7]",alternative,filler,True,0,0,0,,17.529116666666667,1,2,"[1, 0]",,There are six clubs.,"[0, 0, 0]","[0, 0, 0]",,True,There are four spades.,"[2, 8, 5]",True,,0,undefined,"[1, 9, 5]"
,8004,0,3949,"[0, 1]",9 + 7 = ?,2,"[2, 3, 7]",alternative,response,False,1,0,0,,17.529116666666667,1,3,"[1, 0]",,7 + 1 = ?,"[8, 0, 0]","[4, 0, 0]",,False,There is a tick.,"[16, 9, 7]",False,,1,undefined,"[8, 7, 1]"
,7644,0,2261,"[1, 0]",There are six circles.,1,"[7, 1, 8]",alternative,response,True,0,0,0,,17.529116666666667,1,2,"[1, 0]",,There are six ticks.,"[0, 0, 0]","[0, 0, 0]",,True,There are four circles.,"[7, 4, 2]",True,,0,undefined,"[2, 4, 5]"
,10270,0,2466,"[0, 1]",There are four triangles.,1,"[4, 2, 0]",alternative,response,True,1,1,1,,17.529116666666667,1,1,"[0, 1]",,There are four triangles.,"[0, 0, 0]","[0, 0, 0]",,True,There are four hearts.,"[9, 4, 8]",True,,1,undefined,"[9, 1, 5]"
,6254,0,1795,"[0, 1]",There are six hearts.,1,"[6, 2, 8]",alternative,filler,True,1,1,1,,17.529116666666667,1,2,"[0, 1]",,There are six notes.,"[0, 0, 0]","[0, 0, 0]",,True,There are four stars.,"[4, 8, 7]",True,,1,undefined,"[8, 5, 6]"
,7714,0,2513,"[1, 0]",There is a note and a tick.,2,"[2, 8, 9]",alternative,filler,True,0,0,0,,17.529116666666667,1,2,"[1, 0]",,There is a diamond and a spade.,"[0, 0, 0]","[0, 0, 0]",,True,There is a tick.,"[8, 2, 3]",True,,0,undefined,"[0, 3, 2]"
,8988,0,2136,"[0, 1]",There are four ticks.,1,"[3, 1, 9]",alternative,filler,True,0,1,0,,17.529116666666667,1,0,"[1, 0]",,There are four hearts.,"[0, 0, 0]","[0, 0, 0]",,True,There are four spades.,"[2, 5, 9]",True,,1,undefined,"[4, 6, 5]"
,9378,0,3668,"[1, 0]",1 + 0 = ?,0,"[2, 9, 1]",alternative,response,False,0,1,0,,17.529116666666667,1,3,"[1, 0]",,1 + 3 = ?,"[2, 0, 0]","[7, 0, 0]",,False,Some of the symbols are ticks.,"[1, 1, 0]",True,,0,undefined,"[4, 1, 3]"
,7206,0,3520,"[1, 0]",There are four spades.,1,"[4, 2, 9]",alternative,response,True,1,0,1,,17.529116666666667,1,1,"[0, 1]",,There are four triangles.,"[0, 0, 0]","[0, 0, 0]",,True,There are four hearts.,"[3, 1, 5]",True,,0,undefined,"[9, 6, 4]"
,8294,0,3348,"[0, 1]",All of the symbols are ticks.,0,"[4, 0, 1]",alternative,response,True,1,1,1,,17.529116666666667,1,2,"[0, 1]",,All of the symbols are triangles.,"[0, 0, 0]","[0, 0, 0]",,True,Some of the symbols are hearts.,"[2, 1, 9]",True,,1,undefined,"[9, 5, 4]"
,7660,0,1936,"[1, 0]",Some of the symbols are spades.,0,"[9, 6, 8]",alternative,filler,True,1,0,1,,17.529116666666667,1,0,"[0, 1]",,Some of the symbols are triangles.,"[0, 0, 0]","[0, 0, 0]",,True,Some of the symbols are triangles.,"[3, 8, 1]",True,,0,undefined,"[9, 4, 6]"
,7714,0,3565,"[0, 1]",Some of the symbols are ticks.,0,"[5, 3, 2]",alternative,response,True,0,1,0,,17.529116666666667,1,0,"[1, 0]",,Some of the symbols are circles.,"[0, 0, 0]","[0, 0, 0]",,True,Some of the symbols are squares.,"[2, 4, 1]",True,,1,undefined,"[7, 3, 6]"
,6340,0,2738,"[0, 1]",8 + 1 = ?,1,"[6, 5, 2]",alternative,response,False,1,0,1,,17.529116666666667,1,3,"[0, 1]",,2 + 2 = ?,"[0, 0, 0]","[1, 0, 0]",,False,There are four stars.,"[9, 8, 1]",True,,1,undefined,"[4, 2, 2]"
,9800,0,5823,"[0, 1]",3 + 5 = ?,1,"[9, 0, 7]",alternative,filler,False,1,0,1,,17.529116666666667,1,3,"[0, 1]",,8 + 6 = ?,"[5, 0, 0]","[8, 0, 0]",,False,There are four triangles.,"[8, 3, 5]",True,,1,undefined,"[14, 8, 6]"
,6114,0,2490,"[0, 1]",7 + 1 = ?,0,"[4, 8, 1]",alternative,response,False,1,0,0,,17.529116666666667,1,3,"[1, 0]",,3 + 8 = ?,"[1, 0, 0]","[2, 0, 0]",,False,Some of the symbols are hearts.,"[8, 7, 1]",False,,1,undefined,"[11, 3, 8]"
,10268,0,4426,"[1, 0]",There are four stars.,1,"[9, 6, 2]",alternative,response,True,1,0,1,,17.529116666666667,1,0,"[0, 1]",,There are four ticks.,"[0, 0, 0]","[0, 0, 0]",,True,There are four triangles.,"[6, 9, 5]",True,,0,undefined,"[2, 4, 7]"
,7559,0,2131,"[0, 1]",There are four triangles.,1,"[5, 9, 8]",alternative,filler,True,1,1,1,,17.529116666666667,1,0,"[0, 1]",,There are four ticks.,"[0, 0, 0]","[0, 0, 0]",,True,There are four squares.,"[9, 7, 3]",True,,1,undefined,"[2, 4, 6]"
,7536,0,2458,"[1, 0]",Some of the symbols are squares.,0,"[8, 5, 3]",alternative,filler,True,1,0,1,,17.529116666666667,1,1,"[0, 1]",,Some of the symbols are notes.,"[0, 0, 0]","[0, 0, 0]",,True,Some of the symbols are notes.,"[5, 1, 7]",True,,0,undefined,"[8, 0, 5]"
,6847,0,3807,"[1, 0]",4 + 3 = ?,0,"[3, 5, 1]",alternative,response,True,1,0,0,,17.529116666666667,1,3,"[1, 0]",,2 + 9 = ?,"[6, 0, 0]","[3, 0, 0]",,False,Some of the symbols are spades.,"[7, 4, 3]",False,,0,undefined,"[11, 2, 9]"
,8783,0,2996,"[1, 0]",Some of the symbols are triangles.,0,"[4, 7, 2]",alternative,filler,True,1,0,1,,17.529116666666667,1,0,"[0, 1]",,Some of the symbols are diamonds.,"[0, 0, 0]","[0, 0, 0]",,True,Some of the symbols are hearts.,"[9, 4, 2]",True,,0,undefined,"[0, 4, 8]"
,6012,0,2321,"[0, 1]",There is a star.,2,"[9, 6, 1]",alternative,filler,True,1,1,1,,17.529116666666667,1,1,"[0, 1]",,There is a square.,"[0, 0, 0]","[0, 0, 0]",,True,There is a triangle.,"[6, 8, 2]",True,,1,undefined,"[5, 1, 0]"
,8878,0,2086,"[0, 1]",There is a triangle and a tick.,2,"[1, 9, 2]",alternative,filler,True,1,1,1,,17.529116666666667,1,2,"[0, 1]",,There is a spade and a star.,"[0, 0, 0]","[0, 0, 0]",,True,There is a club.,"[9, 2, 7]",True,,1,undefined,"[3, 6, 0]"
,7432,0,2292,"[0, 1]",There is a diamond.,2,"[1, 4, 6]",alternative,response,True,1,1,1,,17.529116666666667,1,1,"[0, 1]",,There is a tick.,"[0, 0, 0]","[0, 0, 0]",,True,There is a club.,"[0, 2, 6]",True,,1,undefined,"[2, 8, 6]"
,7434,0,2409,"[1, 0]",There is a square.,2,"[2, 4, 9]",alternative,filler,True,0,0,0,,17.529116666666667,1,0,"[1, 0]",,There is a note.,"[0, 0, 0]","[0, 0, 0]",,True,There is a tick.,"[5, 9, 8]",True,,0,undefined,"[8, 5, 9]"
,11165,0,2017,"[1, 0]",There is a star and a diamond.,2,"[3, 2, 1]",alternative,response,True,1,0,1,,17.529116666666667,1,2,"[0, 1]",,There is a circle and a spade.,"[0, 0, 0]","[0, 0, 0]",,True,There is a spade.,"[6, 0, 4]",True,,0,undefined,"[7, 3, 6]"
,8527,0,2569,"[1, 0]",There are four stars.,1,"[7, 5, 3]",alternative,response,True,1,0,1,,17.529116666666667,1,1,"[0, 1]",,There are four clubs.,"[0, 0, 0]","[0, 0, 0]",,True,There are four circles.,"[6, 4, 2]",True,,0,undefined,"[1, 5, 8]"
,10568,0,3566,"[1, 0]",There are six spades.,1,"[7, 1, 3]",alternative,response,True,0,0,0,,17.529116666666667,1,2,"[1, 0]",,There are six circles.,"[0, 0, 0]","[0, 0, 0]",,True,There are four circles.,"[3, 7, 6]",True,,0,undefined,"[7, 3, 8]"
,6573,0,2598,"[1, 0]",There are four squares.,1,"[4, 8, 2]",alternative,response,True,0,0,0,,17.529116666666667,1,1,"[1, 0]",,There are four diamonds.,"[0, 0, 0]","[0, 0, 0]",,True,There are four hearts.,"[5, 3, 4]",True,,0,undefined,"[0, 2, 7]"
,12042,0,6043,"[1, 0]",Some of the symbols are squares.,0,"[8, 1, 6]",alternative,response,True,0,0,0,,17.529116666666667,1,1,"[1, 0]",,Some of the symbols are ticks.,"[0, 0, 0]","[0, 0, 0]",,True,Some of the symbols are notes.,"[5, 3, 0]",True,,0,undefined,"[2, 5, 0]"
,7961,0,1760,"[1, 0]",There is a circle.,2,"[1, 5, 4]",alternative,filler,True,0,0,0,,17.529116666666667,1,1,"[1, 0]",,There is a spade.,"[0, 0, 0]","[0, 0, 0]",,True,There is a club.,"[7, 0, 3]",True,,0,undefined,"[3, 9, 5]"
,7964,0,2286,"[1, 0]",Some of the symbols are notes.,0,"[2, 1, 9]",alternative,response,True,1,0,1,,17.529116666666667,1,1,"[0, 1]",,Some of the symbols are spades.,"[0, 0, 0]","[0, 0, 0]",,True,Some of the symbols are ticks.,"[8, 4, 3]",True,,0,undefined,"[3, 2, 9]"
,7653,0,3069,"[1, 0]",All of the symbols are squares.,0,"[7, 4, 5]",alternative,response,True,0,0,0,,17.529116666666667,1,2,"[1, 0]",,All of the symbols are notes.,"[0, 0, 0]","[0, 0, 0]",,True,Some of the symbols are circles.,"[5, 2, 8]",True,,0,undefined,"[8, 4, 5]"
,5393,0,2137,"[0, 1]",3 + 2 = ?,2,"[6, 9, 0]",alternative,response,False,1,0,0,,17.529116666666667,1,3,"[1, 0]",,8 + 5 = ?,"[4, 0, 0]","[2, 0, 0]",,False,There is a star.,"[5, 3, 2]",False,,1,undefined,"[13, 8, 5]"
,7816,0,1741,"[0, 1]",There is a club.,2,"[8, 5, 1]",alternative,response,False,0,0,0,,17.529116666666667,0,0,"[1, 0]",,There is a circle.,"[0, 0, 0]","[0, 0, 0]",,False,There is a note.,"[1, 6, 8]",True,,1,undefined,"[7, 5, 6]"
,7619,0,2947,"[1, 0]",There are four spades.,1,"[6, 1, 4]",alternative,response,True,0,0,0,,17.529116666666667,1,0,"[1, 0]",,There are four circles.,"[0, 0, 0]","[0, 0, 0]",,True,There are four stars.,"[3, 2, 0]",True,,0,undefined,"[7, 9, 6]"
,6364,0,2309,"[0, 1]",3 + 5 = ?,1,"[2, 6, 4]",alternative,filler,False,1,0,0,,17.529116666666667,1,3,"[1, 0]",,6 + 2 = ?,"[9, 0, 0]","[3, 0, 0]",,False,There are four ticks.,"[8, 3, 5]",False,,1,undefined,"[8, 6, 2]"
,6919,0,1695,"[0, 1]",There are six notes.,1,"[5, 1, 9]",alternative,filler,True,1,1,1,,17.529116666666667,1,2,"[0, 1]",,There are six spades.,"[0, 0, 0]","[0, 0, 0]",,True,There are four squares.,"[8, 2, 3]",True,,1,undefined,"[3, 1, 9]"
,11421,0,3925,"[1, 0]",All of the symbols are notes.,0,"[9, 1, 8]",alternative,response,True,1,0,1,,17.529116666666667,1,2,"[0, 1]",,All of the symbols are spades.,"[0, 0, 0]","[0, 0, 0]",,True,Some of the symbols are triangles.,"[8, 6, 1]",True,,0,undefined,"[3, 1, 8]"
,7261,0,3073,"[1, 0]",All of the symbols are diamonds.,0,"[2, 1, 3]",alternative,filler,True,0,0,0,,17.529116666666667,1,2,"[1, 0]",,All of the symbols are ticks.,"[0, 0, 0]","[0, 0, 0]",,True,Some of the symbols are ticks.,"[0, 8, 3]",True,,0,undefined,"[2, 9, 0]"
,7940,0,2302,"[1, 0]",2 + 9 = ?,0,"[3, 4, 8]",alternative,filler,True,1,0,1,,17.529116666666667,1,3,"[0, 1]",,8 + 1 = ?,"[4, 0, 0]","[9, 0, 0]",,True,Some of the symbols are spades.,"[11, 2, 9]",True,,0,undefined,"[9, 8, 1]"
,6168,0,2036,"[1, 0]",There are six stars.,1,"[5, 7, 2]",alternative,response,True,1,0,1,,17.529116666666667,1,2,"[0, 1]",,There are six diamonds.,"[0, 0, 0]","[0, 0, 0]",,True,There are four squares.,"[6, 5, 0]",True,,0,undefined,"[0, 1, 7]"
,8166,0,2566,"[0, 1]",There are four notes.,1,"[1, 6, 9]",alternative,response,True,0,1,0,,17.529116666666667,1,0,"[1, 0]",,There are four triangles.,"[0, 0, 0]","[0, 0, 0]",,True,There are four clubs.,"[8, 3, 7]",True,,1,undefined,"[9, 4, 5]"
,7448,0,2631,"[0, 1]",All of the symbols are spades.,0,"[8, 5, 3]",alternative,filler,True,0,1,0,,17.529116666666667,1,2,"[1, 0]",,All of the symbols are stars.,"[0, 0, 0]","[0, 0, 0]",,True,Some of the symbols are notes.,"[3, 5, 2]",True,,1,undefined,"[6, 1, 3]"
,7636,0,2340,"[1, 0]",There are four circles.,1,"[2, 0, 6]",alternative,filler,True,0,0,0,,17.529116666666667,1,0,"[1, 0]",,There are four ticks.,"[0, 0, 0]","[0, 0, 0]",,True,There are four ticks.,"[7, 1, 6]",True,,0,undefined,"[2, 5, 8]"
,5222,0,2050,"[0, 1]",There is a circle.,2,"[5, 9, 7]",alternative,response,True,1,1,1,,17.529116666666667,1,1,"[0, 1]",,There is a heart.,"[0, 0, 0]","[0, 0, 0]",,True,There is a square.,"[7, 1, 8]",True,,1,undefined,"[4, 6, 1]"
,5713,0,1995,"[0, 1]",There are four clubs.,1,"[1, 7, 4]",alternative,response,True,1,1,1,,17.529116666666667,1,0,"[0, 1]",,There are four circles.,"[0, 0, 0]","[0, 0, 0]",,True,There are four clubs.,"[1, 4, 5]",True,,1,undefined,"[7, 1, 3]"
,10627,0,2042,"[1, 0]",There is a circle and a diamond.,2,"[2, 0, 6]",alternative,response,True,0,0,0,,17.529116666666667,1,2,"[1, 0]",,There is a tick and a circle.,"[0, 0, 0]","[0, 0, 0]",,True,There is a tick.,"[7, 0, 4]",True,,0,undefined,"[2, 7, 3]"
,8830,0,3549,"[0, 1]",There is a note and a circle.,2,"[9, 8, 0]",alternative,filler,True,0,1,0,,17.529116666666667,1,2,"[1, 0]",,There is a diamond and a spade.,"[0, 0, 0]","[0, 0, 0]",,True,There is a triangle.,"[8, 7, 1]",True,,1,undefined,"[0, 3, 4]"
,6761,0,2349,"[0, 1]",Some of the symbols are squares.,0,"[0, 6, 7]",alternative,filler,True,0,1,0,,17.529116666666667,1,0,"[1, 0]",,Some of the symbols are spades.,"[0, 0, 0]","[0, 0, 0]",,True,Some of the symbols are diamonds.,"[5, 2, 0]",True,,1,undefined,"[3, 2, 1]"
,9297,0,2729,"[0, 1]",Some of the symbols are clubs.,0,"[2, 4, 6]",alternative,filler,True,1,1,1,,17.529116666666667,1,1,"[0, 1]",,Some of the symbols are triangles.,"[0, 0, 0]","[0, 0, 0]",,True,Some of the symbols are ticks.,"[1, 8, 0]",True,,1,undefined,"[9, 2, 0]"
,9063,0,2855,"[0, 1]",All of the symbols are clubs.,0,"[9, 6, 7]",alternative,filler,True,1,1,1,,17.529116666666667,1,2,"[0, 1]",,All of the symbols are clubs.,"[0, 0, 0]","[0, 0, 0]",,True,Some of the symbols are triangles.,"[1, 9, 7]",True,,1,undefined,"[1, 9, 4]"
,8462,0,4088,"[1, 0]",There is a triangle.,2,"[2, 4, 8]",alternative,response,True,1,0,1,,17.529116666666667,1,0,"[0, 1]",,There is a triangle.,"[0, 0, 0]","[0, 0, 0]",,True,There is a tick.,"[9, 2, 1]",True,,0,undefined,"[9, 6, 4]"
,8938,0,2824,"[1, 0]",Some of the symbols are clubs.,0,"[9, 0, 4]",alternative,response,True,1,0,1,,17.529116666666667,1,0,"[0, 1]",,Some of the symbols are diamonds.,"[0, 0, 0]","[0, 0, 0]",,True,Some of the symbols are triangles.,"[1, 6, 4]",True,,0,undefined,"[0, 7, 5]"
,6949,0,2317,"[0, 1]",There is a circle.,2,"[9, 2, 7]",alternative,filler,True,1,1,1,,17.529116666666667,1,0,"[0, 1]",,There is a circle.,"[0, 0, 0]","[0, 0, 0]",,True,There is a triangle.,"[7, 5, 2]",True,,1,undefined,"[7, 6, 1]"
,7018,0,2240,"[0, 1]",There are six ticks.,1,"[3, 9, 6]",alternative,filler,True,0,1,0,,17.529116666666667,1,2,"[1, 0]",,There are six squares.,"[0, 0, 0]","[0, 0, 0]",,True,There are four spades.,"[2, 8, 7]",True,,1,undefined,"[5, 4, 6]"
,6134,0,2370,"[0, 1]",2 + 0 = ?,2,"[7, 8, 5]",alternative,response,False,1,0,1,,17.529116666666667,1,3,"[0, 1]",,0 + 8 = ?,"[3, 0, 0]","[5, 0, 0]",,False,There is a circle.,"[2, 2, 0]",True,,1,undefined,"[8, 0, 8]"
,6012,0,2074,"[1, 0]",There are four spades.,1,"[4, 9, 5]",alternative,filler,True,1,0,1,,17.529116666666667,1,0,"[0, 1]",,There are four clubs.,"[0, 0, 0]","[0, 0, 0]",,True,There are four hearts.,"[3, 7, 0]",True,,0,undefined,"[1, 3, 9]"
,5809,0,2582,"[1, 0]",8 + 6 = ?,2,"[8, 0, 6]",alternative,filler,True,1,0,1,,17.529116666666667,1,3,"[0, 1]",,1 + 7 = ?,"[8, 0, 0]","[3, 0, 0]",,True,There is a note.,"[14, 8, 6]",True,,0,undefined,"[8, 1, 7]"
,6387,0,2443,"[0, 1]",0 + 6 = ?,1,"[3, 9, 6]",alternative,response,True,0,1,0,,17.529116666666667,1,3,"[1, 0]",,4 + 8 = ?,"[7, 0, 0]","[9, 0, 0]",,True,There are four spades.,"[6, 0, 6]",True,,1,undefined,"[12, 4, 8]"
,5846,0,1965,"[0, 1]",There is a tick.,2,"[6, 2, 9]",alternative,response,True,1,1,1,,17.529116666666667,1,0,"[0, 1]",,There is a tick.,"[0, 0, 0]","[0, 0, 0]",,True,There is a star.,"[2, 1, 5]",True,,1,undefined,"[2, 0, 5]"
,6042,0,2036,"[0, 1]",There are four squares.,1,"[9, 4, 7]",alternative,filler,True,0,1,0,,17.529116666666667,1,1,"[1, 0]",,There are four circles.,"[0, 0, 0]","[0, 0, 0]",,True,There are four triangles.,"[5, 4, 6]",True,,1,undefined,"[7, 8, 5]"
,5620,0,2620,"[0, 1]",5 + 6 = ?,1,"[0, 3, 4]",alternative,response,False,1,0,1,,17.529116666666667,1,3,"[0, 1]",,4 + 3 = ?,"[4, 0, 0]","[6, 0, 0]",,False,There are four diamonds.,"[11, 5, 6]",True,,1,undefined,"[7, 4, 3]"
bot_check,,1,,,,,,,,,,,,"[0, 'Jennifer']",9.682433333333334,,,,1,,,,,,,,,Jennifer,,undefined,
,13462,1,3278,"[0, 1]",There are four circles.,1,"[1, 2, 6]",alternative,response,True,0,1,0,,9.682433333333334,1,0,"[1, 0]",,There are four spades.,"[0, 0, 0]","[0, 0, 0]",,True,There are four clubs.,"[7, 5, 0]",True,,1,undefined,"[3, 8, 0]"
,11527,1,2423,"[0, 1]",Some of the symbols are circles.,0,"[7, 0, 2]",alternative,filler,True,1,1,1,,9.682433333333334,1,0,"[0, 1]",,Some of the symbols are spades.,"[0, 0, 0]","[0, 0, 0]",,True,Some of the symbols are circles.,"[7, 9, 1]",True,,1,undefined,"[3, 5, 9]"
,4200,1,1599,"[1, 0]",There are four triangles.,1,"[5, 4, 3]",alternative,filler,True,1,0,1,,9.682433333333334,1,0,"[0, 1]",,There are four triangles.,"[0, 0, 0]","[0, 0, 0]",,True,There are four squares.,"[9, 3, 2]",True,,0,undefined,"[9, 7, 4]"
,7736,1,3047,"[0, 1]",All of the symbols are triangles.,0,"[6, 8, 0]",alternative,filler,True,1,1,1,,9.682433333333334,1,2,"[0, 1]",,All of the symbols are notes.,"[0, 0, 0]","[0, 0, 0]",,True,Some of the symbols are stars.,"[9, 7, 0]",True,,1,undefined,"[8, 2, 7]"
,9416,1,2191,"[0, 1]",Some of the symbols are diamonds.,0,"[7, 2, 0]",alternative,response,True,0,1,0,,9.682433333333334,1,1,"[1, 0]",,Some of the symbols are stars.,"[0, 0, 0]","[0, 0, 0]",,True,Some of the symbols are circles.,"[0, 2, 3]",True,,1,undefined,"[6, 1, 4]"
,13095,1,3935,"[0, 1]",There is a club and a star.,2,"[8, 3, 1]",alternative,filler,True,1,1,1,,9.682433333333334,1,2,"[0, 1]",,There is a spade and a star.,"[0, 0, 0]","[0, 0, 0]",,True,There is a note.,"[1, 6, 3]",True,,1,undefined,"[3, 6, 4]"
,10616,1,2094,"[1, 0]",1 + 3 = ?,0,"[8, 4, 2]",alternative,filler,False,0,1,1,,9.682433333333334,1,3,"[0, 1]",,0 + 9 = ?,"[5, 0, 0]","[6, 0, 0]",,False,Some of the symbols are notes.,"[4, 1, 3]",False,,0,undefined,"[9, 0, 9]"
,5264,1,1895,"[1, 0]",There are six squares.,1,"[7, 9, 5]",alternative,response,True,0,0,0,,9.682433333333334,0,2,"[1, 0]",,There are six notes.,"[0, 0, 0]","[0, 0, 0]",,True,There are four circles.,"[5, 1, 0]",True,,0,undefined,"[8, 4, 9]"
,8504,1,1983,"[1, 0]",Some of the symbols are circles.,0,"[7, 3, 2]",alternative,filler,True,1,0,1,,9.682433333333334,1,1,"[0, 1]",,Some of the symbols are spades.,"[0, 0, 0]","[0, 0, 0]",,True,Some of the symbols are circles.,"[7, 9, 2]",True,,0,undefined,"[3, 7, 8]"
,9008,1,1975,"[0, 1]",There are four spades.,1,"[1, 5, 4]",alternative,filler,True,1,1,1,,9.682433333333334,1,0,"[0, 1]",,There are four hearts.,"[0, 0, 0]","[0, 0, 0]",,True,There are four clubs.,"[3, 4, 0]",True,,1,undefined,"[4, 1, 0]"
,5231,1,2374,"[1, 0]",There are six notes.,1,"[8, 7, 5]",alternative,response,True,0,0,0,,9.682433333333334,0,2,"[1, 0]",,There are six stars.,"[0, 0, 0]","[0, 0, 0]",,True,There are four notes.,"[8, 4, 7]",True,,0,undefined,"[6, 8, 7]"
,6305,1,2687,"[0, 1]",There is a square and a star.,2,"[8, 5, 4]",alternative,response,True,1,1,1,,9.682433333333334,0,2,"[0, 1]",,There is a spade and a heart.,"[0, 0, 0]","[0, 0, 0]",,True,There is a note.,"[5, 6, 3]",True,,1,undefined,"[3, 4, 7]"
,7056,1,2135,"[1, 0]",Some of the symbols are notes.,0,"[2, 6, 9]",alternative,response,True,1,0,1,,9.682433333333334,0,0,"[0, 1]",,Some of the symbols are clubs.,"[0, 0, 0]","[0, 0, 0]",,True,Some of the symbols are ticks.,"[8, 7, 1]",True,,0,undefined,"[1, 7, 2]"
,7455,1,2486,"[0, 1]",All of the symbols are clubs.,0,"[0, 4, 1]",alternative,response,False,1,0,0,,9.682433333333334,0,2,"[1, 0]",,All of the symbols are spades.,"[0, 0, 0]","[0, 0, 0]",,False,Some of the symbols are diamonds.,"[1, 6, 3]",False,,1,undefined,"[3, 0, 5]"
,5872,1,2959,"[0, 1]",8 + 3 = ?,2,"[4, 3, 0]",alternative,filler,True,0,1,1,,9.682433333333334,1,3,"[0, 1]",,2 + 6 = ?,"[5, 0, 0]","[5, 0, 0]",,False,There is a heart.,"[11, 8, 3]",False,,1,undefined,"[8, 2, 6]"
,5328,1,1423,"[1, 0]",There is a triangle.,2,"[2, 1, 6]",alternative,filler,True,1,0,1,,9.682433333333334,1,0,"[0, 1]",,There is a club.,"[0, 0, 0]","[0, 0, 0]",,True,There is a tick.,"[9, 8, 6]",True,,0,undefined,"[1, 7, 6]"
,6592,1,3735,"[1, 0]",There are six clubs.,1,"[3, 7, 1]",alternative,filler,True,0,0,0,,9.682433333333334,1,2,"[1, 0]",,There are six triangles.,"[0, 0, 0]","[0, 0, 0]",,True,There are four spades.,"[1, 8, 9]",True,,0,undefined,"[9, 1, 7]"
,6122,1,2097,"[1, 0]",There is a star.,2,"[3, 6, 2]",alternative,filler,True,1,0,1,,9.682433333333334,1,0,"[0, 1]",,There is a star.,"[0, 0, 0]","[0, 0, 0]",,True,There is a spade.,"[6, 5, 8]",True,,0,undefined,"[6, 4, 5]"
,6750,1,1535,"[0, 1]",There is a triangle.,2,"[1, 9, 3]",alternative,response,True,1,1,1,,9.682433333333334,0,1,"[0, 1]",,There is a star.,"[0, 0, 0]","[0, 0, 0]",,True,There is a club.,"[9, 8, 1]",True,,1,undefined,"[6, 5, 9]"
,4744,1,1942,"[1, 0]",5 + 4 = ?,0,"[6, 4, 0]",alternative,response,True,1,0,1,,9.682433333333334,0,3,"[0, 1]",,9 + 3 = ?,"[10, 0, 0]","[2, 0, 0]",,True,Some of the symbols are stars.,"[9, 5, 4]",True,,0,undefined,"[12, 9, 3]"
,5224,1,2239,"[0, 1]",8 + 7 = ?,1,"[1, 0, 4]",alternative,response,True,0,1,0,,9.682433333333334,0,3,"[1, 0]",,0 + 2 = ?,"[7, 0, 0]","[6, 0, 0]",,True,There are four clubs.,"[15, 8, 7]",True,,1,undefined,"[2, 0, 2]"
,6144,1,2799,"[0, 1]",7 + 9 = ?,2,"[7, 4, 5]",alternative,filler,True,0,1,0,,9.682433333333334,1,3,"[1, 0]",,7 + 5 = ?,"[7, 0, 0]","[8, 0, 0]",,True,There is a circle.,"[16, 7, 9]",True,,1,undefined,"[12, 7, 5]"
,4968,1,1263,"[0, 1]",There is a tick.,2,"[3, 2, 6]",alternative,response,True,0,1,0,,9.682433333333334,0,1,"[1, 0]",,There is a heart.,"[0, 0, 0]","[0, 0, 0]",,True,There is a spade.,"[2, 6, 7]",True,,1,undefined,"[4, 5, 6]"
,4312,1,1847,"[0, 1]",1 + 8 = ?,0,"[1, 6, 4]",alternative,filler,False,1,0,1,,9.682433333333334,1,3,"[0, 1]",,4 + 6 = ?,"[0, 0, 0]","[0, 0, 0]",,False,Some of the symbols are clubs.,"[9, 1, 8]",True,,1,undefined,"[10, 4, 6]"
,3408,1,1199,"[0, 1]",2 + 8 = ?,1,"[5, 6, 4]",alternative,response,False,1,0,0,,9.682433333333334,0,3,"[1, 0]",,0 + 2 = ?,"[5, 0, 0]","[5, 0, 0]",,False,There are four squares.,"[10, 2, 8]",False,,1,undefined,"[2, 0, 2]"
,7120,1,2438,"[0, 1]",There is a tick and a diamond.,2,"[7, 9, 2]",alternative,response,True,1,1,1,,9.682433333333334,0,2,"[0, 1]",,There is a triangle and a star.,"[0, 0, 0]","[0, 0, 0]",,True,There is a circle.,"[2, 0, 5]",True,,1,undefined,"[9, 6, 3]"
,4904,1,1711,"[0, 1]",There is a square.,2,"[6, 2, 1]",alternative,filler,True,0,1,0,,9.682433333333334,1,1,"[1, 0]",,There is a star.,"[0, 0, 0]","[0, 0, 0]",,True,There is a star.,"[5, 1, 7]",True,,1,undefined,"[6, 9, 0]"
,5720,1,2151,"[0, 1]",Some of the symbols are hearts.,0,"[1, 2, 9]",alternative,filler,True,0,1,0,,9.682433333333334,1,1,"[1, 0]",,Some of the symbols are hearts.,"[0, 0, 0]","[0, 0, 0]",,True,Some of the symbols are clubs.,"[4, 3, 2]",True,,1,undefined,"[4, 8, 0]"
,5968,1,1326,"[0, 1]",There are four diamonds.,1,"[2, 5, 7]",alternative,response,True,1,1,1,,9.682433333333334,0,1,"[0, 1]",,There are four spades.,"[0, 0, 0]","[0, 0, 0]",,True,There are four ticks.,"[0, 3, 8]",True,,1,undefined,"[3, 6, 1]"
,4288,1,1807,"[0, 1]",There are six triangles.,1,"[1, 8, 2]",alternative,response,True,1,1,1,,9.682433333333334,0,2,"[0, 1]",,There are six ticks.,"[0, 0, 0]","[0, 0, 0]",,True,There are four clubs.,"[9, 8, 3]",True,,1,undefined,"[2, 1, 4]"
,6184,1,1303,"[1, 0]",There is a diamond and a spade.,2,"[2, 3, 1]",alternative,filler,True,1,0,1,,9.682433333333334,1,2,"[0, 1]",,There is a club and a star.,"[0, 0, 0]","[0, 0, 0]",,True,There is a tick.,"[0, 3, 9]",True,,0,undefined,"[1, 6, 9]"
,4560,1,1463,"[0, 1]",There is a circle.,2,"[9, 6, 8]",alternative,filler,True,0,1,0,,9.682433333333334,1,1,"[1, 0]",,There is a spade.,"[0, 0, 0]","[0, 0, 0]",,True,There is a triangle.,"[7, 5, 9]",True,,1,undefined,"[3, 2, 4]"
,4392,1,2207,"[1, 0]",3 + 4 = ?,0,"[7, 5, 0]",alternative,filler,False,0,1,0,,9.682433333333334,1,3,"[1, 0]",,4 + 3 = ?,"[3, 0, 0]","[2, 0, 0]",,False,Some of the symbols are circles.,"[7, 3, 4]",True,,0,undefined,"[7, 4, 3]"
,4152,1,1695,"[0, 1]",5 + 1 = ?,2,"[9, 3, 4]",alternative,response,True,0,1,0,,9.682433333333334,0,3,"[1, 0]",,5 + 6 = ?,"[9, 0, 0]","[0, 0, 0]",,True,There is a triangle.,"[6, 5, 1]",True,,1,undefined,"[11, 5, 6]"
,5096,1,1039,"[0, 1]",There is a note and a diamond.,2,"[9, 7, 0]",alternative,filler,True,1,1,1,,9.682433333333334,0,2,"[0, 1]",,There is a club and a circle.,"[0, 0, 0]","[0, 0, 0]",,True,There is a triangle.,"[8, 0, 6]",True,,1,undefined,"[1, 7, 5]"
,4048,1,1159,"[1, 0]",There are four circles.,1,"[4, 5, 3]",alternative,response,True,0,0,0,,9.682433333333334,0,0,"[1, 0]",,There are four diamonds.,"[0, 0, 0]","[0, 0, 0]",,True,There are four hearts.,"[7, 9, 0]",True,,0,undefined,"[0, 2, 5]"
,6136,1,3127,"[1, 0]",There are four ticks.,1,"[6, 4, 5]",alternative,filler,False,0,1,0,,9.682433333333334,1,1,"[1, 0]",,There are four squares.,"[0, 0, 0]","[0, 0, 0]",,False,There are four stars.,"[2, 0, 6]",True,,0,undefined,"[5, 9, 0]"
,7360,1,2663,"[1, 0]",Some of the symbols are stars.,0,"[4, 9, 8]",alternative,filler,True,0,0,0,,9.682433333333334,1,0,"[1, 0]",,Some of the symbols are spades.,"[0, 0, 0]","[0, 0, 0]",,True,Some of the symbols are hearts.,"[6, 7, 9]",True,,0,undefined,"[3, 7, 0]"
,4103,1,1174,"[1, 0]",There are six notes.,1,"[0, 9, 1]",alternative,filler,True,1,0,1,,9.682433333333334,1,2,"[0, 1]",,There are six notes.,"[0, 0, 0]","[0, 0, 0]",,True,There are four diamonds.,"[8, 6, 0]",True,,0,undefined,"[8, 6, 4]"
,4888,1,1311,"[0, 1]",All of the symbols are circles.,0,"[1, 4, 9]",alternative,filler,True,1,1,1,,9.682433333333334,0,2,"[0, 1]",,All of the symbols are circles.,"[0, 0, 0]","[0, 0, 0]",,True,Some of the symbols are clubs.,"[7, 0, 8]",True,,1,undefined,"[7, 6, 2]"
,6224,1,2863,"[0, 1]",5 + 4 = ?,0,"[6, 2, 0]",alternative,response,True,0,1,0,,9.682433333333334,0,3,"[1, 0]",,8 + 8 = ?,"[4, 0, 0]","[2, 0, 0]",,True,Some of the symbols are stars.,"[9, 5, 4]",True,,1,undefined,"[16, 8, 8]"
,4991,1,2214,"[1, 0]",There are four stars.,1,"[1, 7, 0]",alternative,response,True,1,0,1,,9.682433333333334,0,1,"[0, 1]",,There are four stars.,"[0, 0, 0]","[0, 0, 0]",,True,There are four clubs.,"[6, 5, 9]",True,,0,undefined,"[6, 8, 2]"
,4615,1,2086,"[1, 0]",0 + 8 = ?,1,"[4, 2, 3]",alternative,filler,False,0,1,0,,9.682433333333334,1,3,"[1, 0]",,7 + 3 = ?,"[6, 0, 0]","[6, 0, 0]",,False,There are four hearts.,"[8, 0, 8]",True,,0,undefined,"[10, 7, 3]"
,4800,1,2280,"[0, 1]",There is a spade.,2,"[1, 4, 0]",alternative,filler,True,1,1,1,,9.682433333333334,1,1,"[0, 1]",,There is a heart.,"[0, 0, 0]","[0, 0, 0]",,True,There is a club.,"[3, 1, 9]",True,,1,undefined,"[4, 8, 6]"
,3841,1,1352,"[1, 0]",There are four stars.,1,"[4, 8, 6]",alternative,response,True,0,0,0,,9.682433333333334,0,1,"[1, 0]",,There are four ticks.,"[0, 0, 0]","[0, 0, 0]",,True,There are four hearts.,"[6, 0, 9]",True,,0,undefined,"[2, 8, 1]"
,5702,1,2318,"[0, 1]",9 + 5 = ?,2,"[1, 4, 0]",alternative,response,False,1,0,0,,9.682433333333334,0,3,"[1, 0]",,2 + 9 = ?,"[2, 0, 0]","[6, 0, 0]",,False,There is a club.,"[14, 9, 5]",False,,1,undefined,"[11, 2, 9]"
,8433,1,2528,"[1, 0]",Some of the symbols are diamonds.,0,"[6, 5, 0]",alternative,response,True,0,0,0,,9.682433333333334,0,1,"[1, 0]",,Some of the symbols are hearts.,"[0, 0, 0]","[0, 0, 0]",,True,Some of the symbols are stars.,"[0, 9, 1]",True,,0,undefined,"[4, 9, 2]"
,5623,1,1326,"[1, 0]",Some of the symbols are spades.,0,"[9, 6, 4]",alternative,response,True,0,0,0,,9.682433333333334,0,0,"[1, 0]",,Some of the symbols are ticks.,"[0, 0, 0]","[0, 0, 0]",,True,Some of the symbols are triangles.,"[3, 4, 8]",True,,0,undefined,"[2, 5, 6]"
,4544,1,1344,"[0, 1]",There is a star and a tick.,2,"[7, 9, 2]",alternative,filler,True,0,1,0,,9.682433333333334,1,2,"[1, 0]",,There is a triangle and a heart.,"[0, 0, 0]","[0, 0, 0]",,True,There is a circle.,"[6, 2, 7]",True,,1,undefined,"[9, 4, 1]"
,4432,1,1327,"[0, 1]",7 + 6 = ?,1,"[2, 5, 7]",alternative,response,True,0,1,1,,9.682433333333334,0,3,"[0, 1]",,0 + 5 = ?,"[6, 0, 0]","[9, 0, 0]",,False,There are four ticks.,"[13, 7, 6]",False,,1,undefined,"[5, 0, 5]"
,4408,1,1855,"[1, 0]",There is a star.,2,"[4, 8, 0]",alternative,response,True,0,0,0,,9.682433333333334,0,1,"[1, 0]",,There is a spade.,"[0, 0, 0]","[0, 0, 0]",,True,There is a heart.,"[6, 4, 1]",True,,0,undefined,"[3, 0, 1]"
,3752,1,1535,"[0, 1]",7 + 3 = ?,0,"[7, 1, 6]",alternative,response,True,0,1,1,,9.682433333333334,0,3,"[0, 1]",,2 + 2 = ?,"[4, 0, 0]","[9, 0, 0]",,False,Some of the symbols are circles.,"[10, 7, 3]",False,,1,undefined,"[4, 2, 2]"
,4632,1,1607,"[0, 1]",There are four ticks.,1,"[7, 0, 9]",alternative,filler,True,0,1,0,,9.682433333333334,1,0,"[1, 0]",,There are four ticks.,"[0, 0, 0]","[0, 0, 0]",,True,There are four circles.,"[2, 4, 3]",True,,1,undefined,"[2, 8, 6]"
,4600,1,1351,"[1, 0]",There is a heart and a triangle.,2,"[0, 8, 1]",alternative,response,True,1,0,1,,9.682433333333334,0,2,"[0, 1]",,There is a note and a diamond.,"[0, 0, 0]","[0, 0, 0]",,True,There is a diamond.,"[4, 9, 8]",True,,0,undefined,"[8, 0, 4]"
,3784,1,1199,"[1, 0]",4 + 2 = ?,1,"[7, 8, 1]",alternative,filler,True,1,0,0,,9.682433333333334,1,3,"[1, 0]",,6 + 8 = ?,"[4, 0, 0]","[2, 0, 0]",,False,There are four circles.,"[6, 4, 2]",False,,0,undefined,"[14, 6, 8]"
,4792,1,1303,"[1, 0]",Some of the symbols are notes.,0,"[8, 6, 0]",alternative,response,True,0,0,0,,9.682433333333334,0,1,"[1, 0]",,Some of the symbols are stars.,"[0, 0, 0]","[0, 0, 0]",,True,Some of the symbols are notes.,"[8, 7, 0]",True,,0,undefined,"[6, 7, 4]"
,5968,1,1887,"[0, 1]",All of the symbols are diamonds.,0,"[8, 6, 4]",alternative,filler,False,1,0,0,,9.682433333333334,1,2,"[1, 0]",,All of the symbols are circles.,"[0, 0, 0]","[0, 0, 0]",,False,Some of the symbols are notes.,"[0, 1, 3]",False,,1,undefined,"[7, 8, 5]"
,4393,1,1144,"[1, 0]",There are four squares.,1,"[8, 5, 4]",alternative,response,True,1,0,1,,9.682433333333334,0,1,"[0, 1]",,There are four triangles.,"[0, 0, 0]","[0, 0, 0]",,True,There are four notes.,"[5, 7, 9]",True,,0,undefined,"[9, 0, 1]"
,4141,1,1254,"[1, 0]",There is a triangle.,2,"[5, 3, 4]",alternative,filler,True,1,0,1,,9.682433333333334,1,1,"[0, 1]",,There is a square.,"[0, 0, 0]","[0, 0, 0]",,True,There is a square.,"[9, 2, 4]",True,,0,undefined,"[5, 7, 9]"
,5720,1,1135,"[0, 1]",Some of the symbols are spades.,0,"[2, 7, 3]",alternative,response,True,1,1,1,,9.682433333333334,0,1,"[0, 1]",,Some of the symbols are clubs.,"[0, 0, 0]","[0, 0, 0]",,True,Some of the symbols are ticks.,"[3, 8, 9]",True,,1,undefined,"[1, 9, 5]"
,3760,1,1407,"[1, 0]",5 + 9 = ?,0,"[0, 3, 1]",alternative,response,False,0,1,0,,9.682433333333334,0,3,"[1, 0]",,5 + 2 = ?,"[4, 0, 0]","[1, 0, 0]",,False,Some of the symbols are diamonds.,"[14, 5, 9]",True,,0,undefined,"[7, 5, 2]"
,6256,1,1423,"[1, 0]",Some of the symbols are hearts.,0,"[6, 2, 7]",alternative,filler,True,0,0,0,,9.682433333333334,1,0,"[1, 0]",,Some of the symbols are clubs.,"[0, 0, 0]","[0, 0, 0]",,True,Some of the symbols are stars.,"[4, 0, 8]",True,,0,undefined,"[1, 3, 6]"
,3704,1,1223,"[1, 0]",4 + 7 = ?,1,"[4, 0, 5]",alternative,filler,False,0,1,1,,9.682433333333334,1,3,"[0, 1]",,5 + 8 = ?,"[6, 0, 0]","[2, 0, 0]",,False,There are four hearts.,"[11, 4, 7]",False,,0,undefined,"[13, 5, 8]"
,5552,1,1519,"[1, 0]",All of the symbols are spades.,0,"[9, 7, 5]",alternative,filler,True,0,0,0,,9.682433333333334,1,2,"[1, 0]",,All of the symbols are circles.,"[0, 0, 0]","[0, 0, 0]",,True,Some of the symbols are triangles.,"[3, 4, 5]",True,,0,undefined,"[7, 8, 5]"
,4288,1,1847,"[1, 0]",There are four circles.,1,"[2, 6, 7]",alternative,filler,True,0,0,0,,9.682433333333334,1,0,"[1, 0]",,There are four notes.,"[0, 0, 0]","[0, 0, 0]",,True,There are four ticks.,"[7, 2, 8]",True,,0,undefined,"[8, 5, 0]"
,3288,1,1223,"[1, 0]",5 + 2 = ?,2,"[7, 0, 6]",alternative,filler,True,1,0,0,,9.682433333333334,1,3,"[1, 0]",,0 + 7 = ?,"[0, 0, 0]","[5, 0, 0]",,False,There is a circle.,"[7, 5, 2]",False,,0,undefined,"[7, 0, 7]"
,3632,1,1319,"[0, 1]",There are six circles.,1,"[9, 4, 1]",alternative,filler,True,1,1,1,,9.682433333333334,1,2,"[0, 1]",,There are six ticks.,"[0, 0, 0]","[0, 0, 0]",,True,There are four triangles.,"[7, 9, 3]",True,,1,undefined,"[2, 0, 4]"
,4032,1,1015,"[1, 0]",There is a tick.,2,"[5, 0, 7]",alternative,response,True,1,0,1,,9.682433333333334,0,0,"[0, 1]",,There is a note.,"[0, 0, 0]","[0, 0, 0]",,True,There is a square.,"[2, 4, 6]",True,,0,undefined,"[8, 9, 6]"
,5712,1,1783,"[0, 1]",All of the symbols are stars.,0,"[6, 4, 2]",alternative,response,True,0,1,0,,9.682433333333334,0,2,"[1, 0]",,All of the symbols are clubs.,"[0, 0, 0]","[0, 0, 0]",,True,Some of the symbols are stars.,"[6, 0, 3]",True,,1,undefined,"[1, 7, 2]"
,3904,1,1494,"[0, 1]",There are six squares.,1,"[8, 3, 4]",alternative,filler,True,0,1,0,,9.682433333333334,1,2,"[1, 0]",,There are six stars.,"[0, 0, 0]","[0, 0, 0]",,True,There are four notes.,"[5, 8, 6]",True,,1,undefined,"[6, 0, 3]"
,4104,1,1279,"[1, 0]",There are four ticks.,1,"[5, 0, 9]",alternative,filler,True,1,0,1,,9.682433333333334,1,1,"[0, 1]",,There are four spades.,"[0, 0, 0]","[0, 0, 0]",,True,There are four squares.,"[2, 0, 9]",True,,0,undefined,"[3, 5, 8]"
,4399,1,1119,"[1, 0]",There are four diamonds.,1,"[0, 4, 1]",alternative,response,True,1,0,1,,9.682433333333334,0,0,"[0, 1]",,There are four diamonds.,"[0, 0, 0]","[0, 0, 0]",,True,There are four diamonds.,"[0, 3, 4]",True,,0,undefined,"[0, 8, 9]"
,3440,1,1087,"[0, 1]",There are four circles.,1,"[2, 8, 6]",alternative,filler,True,1,1,1,,9.682433333333334,1,1,"[0, 1]",,There are four triangles.,"[0, 0, 0]","[0, 0, 0]",,True,There are four ticks.,"[7, 0, 9]",True,,1,undefined,"[9, 1, 5]"
,5096,1,967,"[1, 0]",There is a diamond.,2,"[5, 4, 6]",alternative,response,True,1,0,1,,9.682433333333334,0,0,"[0, 1]",,There is a triangle.,"[0, 0, 0]","[0, 0, 0]",,True,There is a square.,"[0, 9, 4]",True,,0,undefined,"[9, 6, 7]"
,4712,1,1094,"[1, 0]",There is a spade.,2,"[8, 5, 6]",alternative,response,True,1,0,1,,9.682433333333334,0,0,"[0, 1]",,There is a circle.,"[0, 0, 0]","[0, 0, 0]",,True,There is a note.,"[3, 6, 1]",True,,0,undefined,"[7, 2, 1]"
,4255,1,1223,"[1, 0]",6 + 6 = ?,1,"[3, 6, 9]",alternative,filler,True,1,0,0,,9.682433333333334,1,3,"[1, 0]",,6 + 9 = ?,"[9, 0, 0]","[0, 0, 0]",,False,There are four spades.,"[12, 6, 6]",False,,0,undefined,"[15, 6, 9]"
,3536,1,1264,"[0, 1]",2 + 8 = ?,2,"[8, 3, 4]",alternative,filler,True,0,1,1,,9.682433333333334,1,3,"[0, 1]",,5 + 8 = ?,"[1, 0, 0]","[5, 0, 0]",,False,There is a note.,"[10, 2, 8]",False,,1,undefined,"[13, 5, 8]"
,6120,1,1607,"[0, 1]",Some of the symbols are spades.,0,"[1, 2, 9]",alternative,response,True,0,1,0,,9.682433333333334,0,0,"[1, 0]",,Some of the symbols are hearts.,"[0, 0, 0]","[0, 0, 0]",,True,Some of the symbols are clubs.,"[3, 7, 0]",True,,1,undefined,"[4, 9, 8]"
,3440,1,1055,"[0, 1]",There are four triangles.,1,"[8, 5, 1]",alternative,filler,True,0,1,0,,9.682433333333334,1,1,"[1, 0]",,There are four hearts.,"[0, 0, 0]","[0, 0, 0]",,True,There are four notes.,"[9, 3, 4]",True,,1,undefined,"[4, 7, 2]"
,5088,1,1311,"[0, 1]",There is a note.,2,"[6, 4, 3]",alternative,filler,True,0,1,0,,9.682433333333334,1,0,"[1, 0]",,There is a spade.,"[0, 0, 0]","[0, 0, 0]",,True,There is a star.,"[8, 9, 2]",True,,1,undefined,"[3, 2, 7]"
,4784,1,1543,"[1, 0]",All of the symbols are clubs.,0,"[2, 9, 1]",alternative,response,True,1,0,1,,9.682433333333334,0,2,"[0, 1]",,All of the symbols are triangles.,"[0, 0, 0]","[0, 0, 0]",,True,Some of the symbols are ticks.,"[1, 7, 0]",True,,0,undefined,"[9, 3, 0]"
,4416,1,1679,"[0, 1]",Some of the symbols are ticks.,0,"[0, 3, 4]",alternative,response,True,0,1,0,,9.682433333333334,0,0,"[1, 0]",,Some of the symbols are diamonds.,"[0, 0, 0]","[0, 0, 0]",,True,Some of the symbols are diamonds.,"[2, 6, 8]",True,,1,undefined,"[0, 3, 8]"
,4768,1,1631,"[1, 0]",Some of the symbols are notes.,0,"[7, 5, 0]",alternative,filler,True,0,0,0,,9.682433333333334,1,1,"[1, 0]",,Some of the symbols are circles.,"[0, 0, 0]","[0, 0, 0]",,True,Some of the symbols are circles.,"[8, 1, 7]",True,,0,undefined,"[7, 5, 8]"
,5552,1,1967,"[0, 1]",Some of the symbols are circles.,0,"[2, 6, 4]",alternative,filler,True,0,1,0,,9.682433333333334,1,1,"[1, 0]",,Some of the symbols are diamonds.,"[0, 0, 0]","[0, 0, 0]",,True,Some of the symbols are ticks.,"[7, 8, 4]",True,,1,undefined,"[0, 3, 9]"
,4488,1,1247,"[1, 0]",There are four ticks.,1,"[8, 5, 2]",alternative,response,True,0,0,0,,9.682433333333334,0,0,"[1, 0]",,There are four stars.,"[0, 0, 0]","[0, 0, 0]",,True,There are four notes.,"[2, 9, 7]",True,,0,undefined,"[6, 9, 8]"
,3968,1,1847,"[1, 0]",0 + 6 = ?,0,"[3, 6, 4]",alternative,filler,False,0,1,1,,9.682433333333334,1,3,"[0, 1]",,3 + 0 = ?,"[8, 0, 0]","[5, 0, 0]",,False,Some of the symbols are spades.,"[6, 0, 6]",False,,0,undefined,"[3, 3, 0]"
,3640,1,1167,"[0, 1]",There is a square.,2,"[0, 2, 5]",alternative,response,True,1,1,1,,9.682433333333334,0,1,"[0, 1]",,There is a tick.,"[0, 0, 0]","[0, 0, 0]",,True,There is a diamond.,"[5, 2, 4]",True,,1,undefined,"[2, 7, 1]"
,3512,1,975,"[1, 0]",There is a tick.,2,"[8, 9, 4]",alternative,response,True,1,0,1,,9.682433333333334,0,0,"[0, 1]",,There is a spade.,"[0, 0, 0]","[0, 0, 0]",,True,There is a note.,"[2, 9, 0]",True,,0,undefined,"[3, 6, 2]"
,4296,1,1575,"[0, 1]",There is a spade.,2,"[8, 2, 3]",alternative,filler,True,0,1,0,,9.682433333333334,1,0,"[1, 0]",,There is a triangle.,"[0, 0, 0]","[0, 0, 0]",,True,There is a note.,"[3, 5, 6]",True,,1,undefined,"[9, 3, 7]"
,3512,1,1159,"[0, 1]",2 + 9 = ?,2,"[0, 7, 2]",alternative,response,False,1,0,1,,9.682433333333334,0,3,"[0, 1]",,6 + 4 = ?,"[6, 0, 0]","[1, 0, 0]",,False,There is a diamond.,"[11, 2, 9]",True,,1,undefined,"[10, 6, 4]"
,5768,1,1656,"[1, 0]",Some of the symbols are triangles.,0,"[6, 3, 7]",alternative,filler,True,1,0,1,,9.682433333333334,1,0,"[0, 1]",,Some of the symbols are hearts.,"[0, 0, 0]","[0, 0, 0]",,True,Some of the symbols are stars.,"[9, 1, 5]",True,,0,undefined,"[4, 9, 2]"
,4158,1,1222,"[1, 0]",There is a diamond and a star.,2,"[5, 9, 6]",alternative,response,True,0,0,0,,9.682433333333334,0,2,"[1, 0]",,There is a square and a note.,"[0, 0, 0]","[0, 0, 0]",,True,There is a square.,"[0, 6, 3]",True,,0,undefined,"[5, 8, 2]"
,3287,1,1126,"[0, 1]",5 + 5 = ?,1,"[8, 1, 3]",alternative,response,True,0,1,1,,9.682433333333334,0,3,"[0, 1]",,4 + 6 = ?,"[3, 0, 0]","[9, 0, 0]",,False,There are four notes.,"[10, 5, 5]",False,,1,undefined,"[10, 4, 6]"
,3968,1,1007,"[0, 1]",5 + 1 = ?,2,"[0, 7, 9]",alternative,response,True,0,1,1,,9.682433333333334,0,3,"[0, 1]",,6 + 7 = ?,"[7, 0, 0]","[8, 0, 0]",,False,There is a diamond.,"[6, 5, 1]",False,,1,undefined,"[13, 6, 7]"
,4639,1,1030,"[1, 0]",All of the symbols are diamonds.,0,"[4, 3, 2]",alternative,response,True,0,0,0,,9.682433333333334,0,2,"[1, 0]",,All of the symbols are stars.,"[0, 0, 0]","[0, 0, 0]",,True,Some of the symbols are hearts.,"[0, 3, 8]",True,,0,undefined,"[6, 2, 3]"
,4399,1,1254,"[1, 0]",There are six clubs.,1,"[3, 1, 9]",alternative,response,True,1,0,1,,9.682433333333334,0,2,"[0, 1]",,There are six clubs.,"[0, 0, 0]","[0, 0, 0]",,True,There are four spades.,"[1, 8, 4]",True,,0,undefined,"[1, 4, 2]"
bot_check,,2,,,,,,,,,,,,"[0, 'Sarah']",23.984533333333335,,,,1,,,,,,,,,Sarah,,undefined,
,9398,2,2759,"[1, 0]",There is a tick.,2,"[5, 9, 7]",alternative,filler,True,0,0,0,,23.984533333333335,1,1,"[1, 0]",,There is a note.,"[0, 0, 0]","[0, 0, 0]",,True,There is a square.,"[2, 0, 5]",True,,0,undefined,"[8, 5, 9]"
,7256,2,3416,"[0, 1]",There are four circles.,1,"[8, 4, 0]",alternative,filler,True,1,1,1,,23.984533333333335,1,1,"[0, 1]",,There are four triangles.,"[0, 0, 0]","[0, 0, 0]",,True,There are four notes.,"[7, 4, 8]",True,,1,undefined,"[9, 0, 6]"
,8159,2,3142,"[0, 1]",Some of the symbols are ticks.,0,"[5, 6, 0]",alternative,response,True,0,1,0,,23.984533333333335,1,0,"[1, 0]",,Some of the symbols are notes.,"[0, 0, 0]","[0, 0, 0]",,True,Some of the symbols are squares.,"[2, 3, 7]",True,,1,undefined,"[8, 9, 2]"
,14969,2,9376,"[1, 0]",There is a square.,2,"[2, 4, 5]",alternative,filler,True,1,0,1,,23.984533333333335,1,0,"[0, 1]",,There is a spade.,"[0, 0, 0]","[0, 0, 0]",,True,There is a tick.,"[5, 9, 2]",True,,0,undefined,"[3, 1, 4]"
,7351,2,2159,"[1, 0]",There is a circle.,2,"[0, 3, 7]",alternative,filler,True,1,0,1,,23.984533333333335,1,0,"[0, 1]",,There is a star.,"[0, 0, 0]","[0, 0, 0]",,True,There is a diamond.,"[7, 3, 6]",True,,0,undefined,"[6, 4, 9]"
,6449,2,2055,"[1, 0]",4 + 0 = ?,1,"[9, 6, 0]",alternative,filler,False,0,1,1,,23.984533333333335,1,3,"[0, 1]",,4 + 1 = ?,"[6, 0, 0]","[4, 0, 0]",,False,There are four triangles.,"[4, 4, 0]",False,,0,undefined,"[5, 4, 1]"
,7623,2,2598,"[1, 0]",There is a square.,2,"[1, 5, 9]",alternative,filler,True,0,0,0,,23.984533333333335,1,1,"[1, 0]",,There is a club.,"[0, 0, 0]","[0, 0, 0]",,True,There is a club.,"[5, 8, 3]",True,,0,undefined,"[1, 2, 3]"
,17896,2,2054,"[1, 0]",There are six notes.,1,"[6, 9, 2]",alternative,filler,True,0,0,0,,23.984533333333335,1,2,"[1, 0]",,There are six diamonds.,"[0, 0, 0]","[0, 0, 0]",,True,There are four stars.,"[8, 2, 3]",True,,0,undefined,"[0, 2, 1]"
,7257,2,2271,"[0, 1]",Some of the symbols are spades.,0,"[6, 5, 2]",alternative,response,True,1,1,1,,23.984533333333335,1,1,"[0, 1]",,Some of the symbols are squares.,"[0, 0, 0]","[0, 0, 0]",,True,Some of the symbols are stars.,"[3, 9, 4]",True,,1,undefined,"[5, 0, 2]"
,7423,2,2734,"[1, 0]",There are four notes.,1,"[2, 9, 5]",alternative,response,True,0,0,0,,23.984533333333335,1,0,"[1, 0]",,There are four notes.,"[0, 0, 0]","[0, 0, 0]",,True,There are four ticks.,"[8, 0, 4]",True,,0,undefined,"[8, 7, 4]"
,7495,2,2111,"[0, 1]",There is a circle.,2,"[3, 5, 7]",alternative,response,True,1,1,1,,23.984533333333335,0,0,"[0, 1]",,There is a square.,"[0, 0, 0]","[0, 0, 0]",,True,There is a spade.,"[7, 0, 6]",True,,1,undefined,"[5, 8, 7]"
,9056,2,2182,"[1, 0]",Some of the symbols are spades.,0,"[7, 8, 5]",alternative,filler,True,0,0,0,,23.984533333333335,1,1,"[1, 0]",,Some of the symbols are clubs.,"[0, 0, 0]","[0, 0, 0]",,True,Some of the symbols are circles.,"[3, 9, 7]",True,,0,undefined,"[1, 3, 0]"
,9377,2,3256,"[0, 1]",There is a note.,2,"[8, 0, 5]",alternative,response,True,1,1,1,,23.984533333333335,0,1,"[0, 1]",,There is a note.,"[0, 0, 0]","[0, 0, 0]",,True,There is a note.,"[8, 0, 2]",True,,1,undefined,"[8, 6, 9]"
,7335,2,3326,"[1, 0]",There are four stars.,1,"[7, 3, 2]",alternative,response,True,1,0,1,,23.984533333333335,1,1,"[0, 1]",,There are four squares.,"[0, 0, 0]","[0, 0, 0]",,True,There are four circles.,"[6, 1, 5]",True,,0,undefined,"[5, 7, 6]"
,6455,2,2590,"[1, 0]",There is a note.,2,"[2, 0, 8]",alternative,response,True,1,0,1,,23.984533333333335,0,0,"[0, 1]",,There is a square.,"[0, 0, 0]","[0, 0, 0]",,True,There is a tick.,"[8, 6, 0]",True,,0,undefined,"[5, 6, 1]"
,5585,2,1911,"[0, 1]",There are four squares.,1,"[7, 6, 2]",alternative,filler,True,0,1,0,,23.984533333333335,1,1,"[1, 0]",,There are four clubs.,"[0, 0, 0]","[0, 0, 0]",,True,There are four circles.,"[5, 3, 1]",True,,1,undefined,"[1, 7, 5]"
,6423,2,2478,"[1, 0]",7 + 7 = ?,2,"[6, 2, 3]",alternative,response,False,0,1,0,,23.984533333333335,0,3,"[1, 0]",,9 + 5 = ?,"[2, 0, 0]","[2, 0, 0]",,False,There is a star.,"[14, 7, 7]",True,,0,undefined,"[14, 9, 5]"
,4999,2,1606,"[1, 0]",1 + 7 = ?,2,"[9, 2, 4]",alternative,response,False,0,1,0,,23.984533333333335,0,3,"[1, 0]",,9 + 6 = ?,"[0, 0, 0]","[9, 0, 0]",,False,There is a triangle.,"[8, 1, 7]",True,,0,undefined,"[15, 9, 6]"
,9936,2,2055,"[1, 0]",1 + 7 = ?,0,"[6, 4, 1]",alternative,filler,True,0,0,0,,23.984533333333335,1,3,"[1, 0]",,5 + 1 = ?,"[8, 0, 0]","[4, 0, 0]",,True,Some of the symbols are stars.,"[8, 1, 7]",True,,0,undefined,"[6, 5, 1]"
,5967,2,2342,"[0, 1]",There is a circle.,2,"[4, 9, 1]",alternative,filler,True,1,1,1,,23.984533333333335,1,0,"[0, 1]",,There is a circle.,"[0, 0, 0]","[0, 0, 0]",,True,There is a heart.,"[7, 6, 1]",True,,1,undefined,"[7, 8, 4]"
,8105,2,2167,"[0, 1]",All of the symbols are notes.,0,"[1, 5, 0]",alternative,filler,True,1,1,1,,23.984533333333335,1,2,"[0, 1]",,All of the symbols are spades.,"[0, 0, 0]","[0, 0, 0]",,True,Some of the symbols are clubs.,"[8, 3, 1]",True,,1,undefined,"[3, 5, 0]"
,6367,2,2142,"[1, 0]",There is a tick.,2,"[7, 5, 2]",alternative,response,True,1,0,1,,23.984533333333335,0,0,"[0, 1]",,There is a triangle.,"[0, 0, 0]","[0, 0, 0]",,True,There is a circle.,"[2, 8, 4]",True,,0,undefined,"[9, 7, 2]"
,5928,2,2014,"[1, 0]",All of the symbols are hearts.,0,"[7, 2, 5]",alternative,filler,True,1,0,1,,23.984533333333335,1,2,"[0, 1]",,All of the symbols are ticks.,"[0, 0, 0]","[0, 0, 0]",,True,Some of the symbols are circles.,"[4, 7, 0]",True,,0,undefined,"[2, 7, 6]"
,9192,2,3294,"[0, 1]",Some of the symbols are ticks.,0,"[6, 2, 1]",alternative,filler,True,0,1,0,,23.984533333333335,1,0,"[1, 0]",,Some of the symbols are squares.,"[0, 0, 0]","[0, 0, 0]",,True,Some of the symbols are stars.,"[2, 3, 5]",True,,1,undefined,"[5, 1, 3]"
,22719,2,18742,"[1, 0]",All of the symbols are spades.,0,"[7, 9, 2]",alternative,response,True,1,0,1,,23.984533333333335,1,2,"[0, 1]",,All of the symbols are diamonds.,"[0, 0, 0]","[0, 0, 0]",,True,Some of the symbols are circles.,"[3, 2, 8]",True,,0,undefined,"[0, 8, 9]"
,5825,2,1800,"[1, 0]",There are four notes.,1,"[5, 2, 3]",alternative,filler,True,0,0,0,,23.984533333333335,1,1,"[1, 0]",,There are four clubs.,"[0, 0, 0]","[0, 0, 0]",,True,There are four squares.,"[8, 5, 3]",True,,0,undefined,"[1, 9, 5]"
,4960,2,1687,"[1, 0]",There are four diamonds.,1,"[4, 2, 6]",alternative,response,True,0,0,0,,23.984533333333335,1,1,"[1, 0]",,There are four ticks.,"[0, 0, 0]","[0, 0, 0]",,True,There are four hearts.,"[0, 9, 2]",True,,0,undefined,"[2, 0, 9]"
,4895,2,1805,"[0, 1]",2 + 3 = ?,0,"[2, 6, 1]",alternative,response,False,1,0,1,,23.984533333333335,1,3,"[0, 1]",,6 + 0 = ?,"[6, 0, 0]","[5, 0, 0]",,False,Some of the symbols are ticks.,"[5, 2, 3]",True,,1,undefined,"[6, 6, 0]"
,6600,2,1527,"[0, 1]",There are four ticks.,1,"[9, 4, 6]",alternative,response,True,1,1,1,,23.984533333333335,1,0,"[0, 1]",,There are four diamonds.,"[0, 0, 0]","[0, 0, 0]",,True,There are four triangles.,"[2, 9, 5]",True,,1,undefined,"[0, 9, 8]"
,5849,2,2086,"[0, 1]",9 + 4 = ?,0,"[9, 2, 8]",alternative,response,True,0,1,0,,23.984533333333335,1,3,"[1, 0]",,2 + 8 = ?,"[8, 0, 0]","[2, 0, 0]",,True,Some of the symbols are triangles.,"[13, 9, 4]",True,,1,undefined,"[10, 2, 8]"
,9087,2,4670,"[1, 0]",There is a star.,2,"[3, 4, 0]",alternative,response,True,1,0,1,,23.984533333333335,0,0,"[0, 1]",,There is a note.,"[0, 0, 0]","[0, 0, 0]",,True,There is a spade.,"[6, 5, 7]",True,,0,undefined,"[8, 7, 0]"
,5249,2,2015,"[0, 1]",There is a note.,2,"[6, 4, 2]",alternative,filler,True,0,1,0,,23.984533333333335,1,1,"[1, 0]",,There is a diamond.,"[0, 0, 0]","[0, 0, 0]",,True,There is a star.,"[8, 6, 9]",True,,1,undefined,"[0, 7, 1]"
,6359,2,2662,"[1, 0]",All of the symbols are clubs.,0,"[8, 1, 3]",alternative,response,True,1,0,1,,23.984533333333335,1,2,"[0, 1]",,All of the symbols are spades.,"[0, 0, 0]","[0, 0, 0]",,True,Some of the symbols are notes.,"[1, 5, 0]",True,,0,undefined,"[3, 0, 8]"
,5591,2,1919,"[0, 1]",1 + 8 = ?,2,"[9, 0, 3]",alternative,filler,True,0,1,0,,23.984533333333335,1,3,"[1, 0]",,9 + 9 = ?,"[6, 0, 0]","[3, 0, 0]",,True,There is a triangle.,"[9, 1, 8]",True,,1,undefined,"[18, 9, 9]"
,6489,2,1599,"[0, 1]",There are six circles.,1,"[6, 7, 2]",alternative,response,True,1,1,1,,23.984533333333335,1,2,"[0, 1]",,There are six diamonds.,"[0, 0, 0]","[0, 0, 0]",,True,There are four stars.,"[7, 8, 0]",True,,1,undefined,"[0, 7, 8]"
,7751,2,2095,"[1, 0]",There are four notes.,1,"[2, 8, 1]",alternative,filler,True,0,0,0,,23.984533333333335,1,0,"[1, 0]",,There are four stars.,"[0, 0, 0]","[0, 0, 0]",,True,There are four ticks.,"[8, 7, 0]",True,,0,undefined,"[6, 3, 7]"
,5768,2,2271,"[1, 0]",There is a tick.,2,"[4, 2, 1]",alternative,response,True,0,0,0,,23.984533333333335,1,1,"[1, 0]",,There is a heart.,"[0, 0, 0]","[0, 0, 0]",,True,There is a heart.,"[2, 0, 7]",True,,0,undefined,"[4, 6, 7]"
,9480,2,3293,"[0, 1]",All of the symbols are diamonds.,0,"[2, 1, 9]",alternative,filler,True,0,1,0,,23.984533333333335,1,2,"[1, 0]",,All of the symbols are diamonds.,"[0, 0, 0]","[0, 0, 0]",,True,Some of the symbols are ticks.,"[0, 7, 8]",True,,1,undefined,"[0, 6, 3]"
,5599,2,1871,"[1, 0]",There is a circle.,2,"[5, 9, 3]",alternative,filler,True,1,0,1,,23.984533333333335,1,0,"[0, 1]",,There is a circle.,"[0, 0, 0]","[0, 0, 0]",,True,There is a square.,"[7, 2, 6]",True,,0,undefined,"[7, 8, 3]"
,6881,2,2503,"[0, 1]",There are four squares.,1,"[2, 1, 5]",alternative,response,True,1,1,1,,23.984533333333335,1,0,"[0, 1]",,There are four stars.,"[0, 0, 0]","[0, 0, 0]",,True,There are four ticks.,"[5, 1, 3]",True,,1,undefined,"[6, 9, 8]"
,7263,2,2735,"[0, 1]",There are six spades.,1,"[7, 6, 5]",alternative,filler,True,0,1,0,,23.984533333333335,1,2,"[1, 0]",,There are six circles.,"[0, 0, 0]","[0, 0, 0]",,True,There are four circles.,"[3, 5, 8]",True,,1,undefined,"[7, 2, 8]"
,41665,2,2096,"[1, 0]",6 + 7 = ?,1,"[5, 2, 9]",alternative,filler,True,1,0,0,,23.984533333333335,1,3,"[1, 0]",,9 + 2 = ?,"[5, 0, 0]","[2, 0, 0]",,False,There are four squares.,"[13, 6, 7]",False,,0,undefined,"[11, 9, 2]"
,5256,2,1726,"[0, 1]",7 + 2 = ?,1,"[6, 3, 0]",alternative,response,True,0,1,0,,23.984533333333335,1,3,"[1, 0]",,3 + 3 = ?,"[0, 0, 0]","[1, 0, 0]",,True,There are four stars.,"[9, 7, 2]",True,,1,undefined,"[6, 3, 3]"
,7215,2,1855,"[0, 1]",There are four diamonds.,1,"[9, 4, 1]",alternative,filler,True,1,1,1,,23.984533333333335,1,0,"[0, 1]",,There are four clubs.,"[0, 0, 0]","[0, 0, 0]",,True,There are four triangles.,"[0, 4, 1]",True,,1,undefined,"[1, 5, 9]"
,7649,2,2198,"[1, 0]",There are six clubs.,1,"[0, 2, 5]",alternative,response,True,1,0,1,,23.984533333333335,1,2,"[0, 1]",,There are six spades.,"[0, 0, 0]","[0, 0, 0]",,True,There are four diamonds.,"[1, 6, 9]",True,,0,undefined,"[3, 5, 8]"
,6727,2,1574,"[0, 1]",There is a club.,2,"[0, 6, 7]",alternative,response,True,0,1,0,,23.984533333333335,1,1,"[1, 0]",,There is a tick.,"[0, 0, 0]","[0, 0, 0]",,True,There is a diamond.,"[1, 2, 4]",True,,1,undefined,"[2, 5, 9]"
,35247,2,1862,"[0, 1]",Some of the symbols are ticks.,0,"[5, 4, 7]",alternative,filler,True,0,1,0,,23.984533333333335,1,1,"[1, 0]",,Some of the symbols are notes.,"[0, 0, 0]","[0, 0, 0]",,True,Some of the symbols are squares.,"[2, 5, 8]",True,,1,undefined,"[8, 5, 1]"
,5632,2,1567,"[1, 0]",There is a diamond and a heart.,2,"[0, 8, 2]",alternative,filler,True,1,0,1,,23.984533333333335,1,2,"[0, 1]",,There is a heart and a note.,"[0, 0, 0]","[0, 0, 0]",,True,There is a diamond.,"[0, 4, 3]",True,,0,undefined,"[4, 8, 6]"
,5457,2,2079,"[1, 0]",5 + 8 = ?,1,"[0, 4, 3]",alternative,filler,False,0,1,0,,23.984533333333335,1,3,"[1, 0]",,5 + 3 = ?,"[6, 0, 0]","[0, 0, 0]",,False,There are four diamonds.,"[13, 5, 8]",True,,0,undefined,"[8, 5, 3]"
,5943,2,1662,"[0, 1]",Some of the symbols are clubs.,0,"[2, 9, 0]",alternative,response,True,1,1,1,,23.984533333333335,1,1,"[0, 1]",,Some of the symbols are clubs.,"[0, 0, 0]","[0, 0, 0]",,True,Some of the symbols are ticks.,"[1, 3, 0]",True,,1,undefined,"[1, 5, 9]"
,22144,2,18239,"[1, 0]",There are six ticks.,1,"[7, 6, 8]",alternative,filler,True,0,0,0,,23.984533333333335,1,2,"[1, 0]",,There are six triangles.,"[0, 0, 0]","[0, 0, 0]",,True,There are four circles.,"[2, 7, 4]",True,,0,undefined,"[9, 0, 4]"
,8857,2,4399,"[0, 1]",Some of the symbols are stars.,0,"[0, 4, 6]",alternative,response,True,0,1,0,,23.984533333333335,1,1,"[1, 0]",,Some of the symbols are stars.,"[0, 0, 0]","[0, 0, 0]",,True,Some of the symbols are diamonds.,"[6, 2, 4]",True,,1,undefined,"[6, 4, 1]"
,7791,2,2327,"[1, 0]",Some of the symbols are notes.,0,"[0, 8, 2]",alternative,filler,True,1,0,1,,23.984533333333335,1,0,"[0, 1]",,Some of the symbols are stars.,"[0, 0, 0]","[0, 0, 0]",,True,Some of the symbols are diamonds.,"[8, 9, 2]",True,,0,undefined,"[6, 4, 3]"
,6112,2,2479,"[0, 1]",9 + 9 = ?,0,"[7, 6, 2]",alternative,filler,False,1,0,0,,23.984533333333335,1,3,"[1, 0]",,5 + 8 = ?,"[8, 0, 0]","[5, 0, 0]",,False,Some of the symbols are circles.,"[18, 9, 9]",False,,1,undefined,"[13, 5, 8]"
,7615,2,2030,"[0, 1]",There is a club and a spade.,2,"[7, 2, 0]",alternative,response,True,1,1,1,,23.984533333333335,1,2,"[0, 1]",,There is a note and a diamond.,"[0, 0, 0]","[0, 0, 0]",,True,There is a circle.,"[1, 3, 5]",True,,1,undefined,"[8, 0, 1]"
,5383,2,2102,"[0, 1]",5 + 7 = ?,0,"[4, 6, 9]",alternative,filler,False,1,0,1,,23.984533333333335,1,3,"[0, 1]",,2 + 9 = ?,"[8, 0, 0]","[4, 0, 0]",,False,Some of the symbols are hearts.,"[12, 5, 7]",True,,1,undefined,"[11, 2, 9]"
,7008,2,3054,"[0, 1]",There are four hearts.,1,"[4, 1, 2]",alternative,response,True,0,1,0,,23.984533333333335,1,1,"[1, 0]",,There are four stars.,"[0, 0, 0]","[0, 0, 0]",,True,There are four hearts.,"[4, 0, 1]",True,,1,undefined,"[6, 3, 2]"
,6735,2,1950,"[1, 0]",There is a star and a diamond.,2,"[5, 8, 9]",alternative,filler,True,1,0,1,,23.984533333333335,1,2,"[0, 1]",,There is a club and a spade.,"[0, 0, 0]","[0, 0, 0]",,True,There is a square.,"[6, 0, 1]",True,,0,undefined,"[1, 3, 2]"
,9960,2,1287,"[1, 0]",9 + 7 = ?,1,"[8, 0, 3]",alternative,response,True,1,0,1,,23.984533333333335,1,3,"[0, 1]",,4 + 9 = ?,"[5, 0, 0]","[4, 0, 0]",,True,There are four notes.,"[16, 9, 7]",True,,0,undefined,"[13, 4, 9]"
,3687,2,1142,"[0, 1]",9 + 3 = ?,0,"[6, 2, 0]",alternative,response,True,0,1,1,,23.984533333333335,1,3,"[0, 1]",,0 + 5 = ?,"[3, 0, 0]","[6, 0, 0]",,False,Some of the symbols are stars.,"[12, 9, 3]",False,,1,undefined,"[5, 0, 5]"
,3295,2,1094,"[0, 1]",There is a spade and a tick.,2,"[0, 4, 1]",alternative,response,True,1,1,1,,23.984533333333335,1,2,"[0, 1]",,There is a star and a square.,"[0, 0, 0]","[0, 0, 0]",,True,There is a diamond.,"[3, 2, 7]",True,,1,undefined,"[6, 5, 0]"
,3704,2,878,"[1, 0]",Some of the symbols are squares.,0,"[4, 0, 5]",alternative,filler,True,1,0,1,,23.984533333333335,1,1,"[0, 1]",,Some of the symbols are ticks.,"[0, 0, 0]","[0, 0, 0]",,True,Some of the symbols are hearts.,"[5, 2, 4]",True,,0,undefined,"[2, 9, 3]"
,3209,2,1072,"[1, 0]",There is a note and a diamond.,2,"[3, 4, 7]",alternative,response,True,1,0,1,,23.984533333333335,0,2,"[0, 1]",,There is a star and a circle.,"[0, 0, 0]","[0, 0, 0]",,True,There is a spade.,"[8, 0, 4]",True,,0,undefined,"[6, 7, 3]"
,2992,2,927,"[0, 1]",There is a spade and a heart.,2,"[3, 6, 4]",alternative,response,True,0,1,0,,23.984533333333335,1,2,"[1, 0]",,There is a spade and a note.,"[0, 0, 0]","[0, 0, 0]",,True,There is a spade.,"[3, 4, 6]",True,,1,undefined,"[3, 8, 9]"
,2887,2,902,"[1, 0]",7 + 9 = ?,2,"[5, 4, 8]",alternative,filler,True,1,0,0,,23.984533333333335,1,3,"[1, 0]",,7 + 5 = ?,"[0, 0, 0]","[9, 0, 0]",,False,There is a square.,"[16, 7, 9]",False,,0,undefined,"[12, 7, 5]"
,2511,2,766,"[0, 1]",There are four spades.,1,"[7, 9, 4]",alternative,response,True,0,1,0,,23.984533333333335,1,1,"[1, 0]",,There are four circles.,"[0, 0, 0]","[0, 0, 0]",,True,There are four circles.,"[3, 5, 0]",True,,1,undefined,"[7, 9, 0]"
,2655,2,902,"[0, 1]",0 + 2 = ?,2,"[4, 1, 5]",alternative,filler,False,1,0,1,,23.984533333333335,1,3,"[0, 1]",,9 + 9 = ?,"[3, 0, 0]","[3, 0, 0]",,False,There is a heart.,"[2, 0, 2]",True,,1,undefined,"[18, 9, 9]"
,2992,2,806,"[0, 1]",Some of the symbols are hearts.,0,"[7, 2, 1]",alternative,filler,True,1,1,1,,23.984533333333335,1,0,"[0, 1]",,Some of the symbols are clubs.,"[0, 0, 0]","[0, 0, 0]",,True,Some of the symbols are circles.,"[4, 8, 2]",True,,1,undefined,"[1, 2, 0]"
,3000,2,895,"[0, 1]",Some of the symbols are spades.,0,"[9, 7, 2]",alternative,filler,True,0,1,0,,23.984533333333335,1,0,"[1, 0]",,Some of the symbols are diamonds.,"[0, 0, 0]","[0, 0, 0]",,True,Some of the symbols are triangles.,"[3, 9, 8]",True,,1,undefined,"[0, 5, 2]"
,2961,2,1007,"[0, 1]",8 + 7 = ?,0,"[9, 3, 6]",alternative,response,False,1,0,0,,23.984533333333335,0,3,"[1, 0]",,3 + 8 = ?,"[4, 0, 0]","[3, 0, 0]",,False,Some of the symbols are triangles.,"[15, 8, 7]",False,,1,undefined,"[11, 3, 8]"
,2960,2,807,"[1, 0]",There are four hearts.,1,"[2, 6, 0]",alternative,filler,True,1,0,1,,23.984533333333335,1,1,"[0, 1]",,There are four hearts.,"[0, 0, 0]","[0, 0, 0]",,True,There are four ticks.,"[4, 6, 7]",True,,0,undefined,"[4, 5, 0]"
,2823,2,1030,"[0, 1]",5 + 8 = ?,2,"[2, 6, 4]",alternative,response,False,1,0,0,,23.984533333333335,1,3,"[1, 0]",,8 + 0 = ?,"[3, 0, 0]","[7, 0, 0]",,False,There is a tick.,"[13, 5, 8]",False,,1,undefined,"[8, 8, 0]"
,2928,2,1062,"[1, 0]",All of the symbols are squares.,0,"[0, 5, 6]",alternative,filler,True,1,0,1,,23.984533333333335,1,2,"[0, 1]",,All of the symbols are circles.,"[0, 0, 0]","[0, 0, 0]",,True,Some of the symbols are diamonds.,"[5, 7, 3]",True,,0,undefined,"[7, 6, 4]"
,3232,2,1119,"[0, 1]",There are four circles.,1,"[9, 4, 7]",alternative,filler,True,1,1,1,,23.984533333333335,1,0,"[0, 1]",,There are four squares.,"[0, 0, 0]","[0, 0, 0]",,True,There are four triangles.,"[7, 8, 9]",True,,1,undefined,"[5, 2, 1]"
,2721,2,800,"[0, 1]",There is a club.,2,"[2, 7, 3]",alternative,filler,True,1,1,1,,23.984533333333335,1,1,"[0, 1]",,There is a triangle.,"[0, 0, 0]","[0, 0, 0]",,True,There is a tick.,"[1, 0, 4]",True,,1,undefined,"[9, 7, 0]"
,2784,2,950,"[1, 0]",There are four notes.,1,"[8, 9, 2]",alternative,filler,True,1,0,1,,23.984533333333335,1,0,"[0, 1]",,There are four diamonds.,"[0, 0, 0]","[0, 0, 0]",,True,There are four notes.,"[8, 6, 7]",True,,0,undefined,"[0, 5, 2]"
,2504,2,943,"[1, 0]",1 + 7 = ?,1,"[5, 1, 2]",alternative,response,True,1,0,1,,23.984533333333335,1,3,"[0, 1]",,5 + 8 = ?,"[0, 0, 0]","[7, 0, 0]",,True,There are four squares.,"[8, 1, 7]",True,,0,undefined,"[13, 5, 8]"
,2696,2,1079,"[0, 1]",1 + 6 = ?,0,"[9, 0, 1]",alternative,filler,False,1,0,0,,23.984533333333335,1,3,"[1, 0]",,5 + 2 = ?,"[0, 0, 0]","[4, 0, 0]",,False,Some of the symbols are triangles.,"[7, 1, 6]",False,,1,undefined,"[7, 5, 2]"
,2855,2,966,"[1, 0]",7 + 7 = ?,1,"[4, 1, 2]",alternative,response,False,0,1,0,,23.984533333333335,0,3,"[1, 0]",,2 + 3 = ?,"[1, 0, 0]","[3, 0, 0]",,False,There are four hearts.,"[14, 7, 7]",True,,0,undefined,"[5, 2, 3]"
,3063,2,822,"[0, 1]",There is a square and a club.,2,"[0, 2, 4]",alternative,filler,True,1,1,1,,23.984533333333335,1,2,"[0, 1]",,There is a square and a diamond.,"[0, 0, 0]","[0, 0, 0]",,True,There is a diamond.,"[5, 1, 4]",True,,1,undefined,"[5, 0, 9]"
,4417,2,1056,"[1, 0]",Some of the symbols are stars.,0,"[0, 1, 4]",alternative,response,True,0,0,0,,23.984533333333335,0,0,"[1, 0]",,Some of the symbols are triangles.,"[0, 0, 0]","[0, 0, 0]",,True,Some of the symbols are diamonds.,"[6, 1, 0]",True,,0,undefined,"[9, 8, 3]"
,2929,2,856,"[0, 1]",There is a heart and a tick.,2,"[5, 6, 4]",alternative,filler,True,0,1,0,,23.984533333333335,1,2,"[1, 0]",,There is a circle and a note.,"[0, 0, 0]","[0, 0, 0]",,True,There is a square.,"[4, 2, 8]",True,,1,undefined,"[7, 8, 6]"
,2711,2,1079,"[1, 0]",There are four clubs.,1,"[1, 0, 4]",alternative,response,True,1,0,1,,23.984533333333335,0,0,"[0, 1]",,There are four hearts.,"[0, 0, 0]","[0, 0, 0]",,True,There are four clubs.,"[1, 5, 0]",True,,0,undefined,"[4, 5, 6]"
,4518,2,1126,"[0, 1]",Some of the symbols are hearts.,0,"[6, 4, 2]",alternative,filler,False,1,0,1,,23.984533333333335,1,1,"[0, 1]",,Some of the symbols are clubs.,"[0, 0, 0]","[0, 0, 0]",,False,Some of the symbols are stars.,"[4, 8, 0]",True,,1,undefined,"[1, 6, 4]"
,2647,2,959,"[1, 0]",1 + 8 = ?,1,"[4, 8, 1]",alternative,filler,True,1,0,0,,23.984533333333335,1,3,"[1, 0]",,5 + 1 = ?,"[5, 0, 0]","[5, 0, 0]",,False,There are four hearts.,"[9, 1, 8]",False,,0,undefined,"[6, 5, 1]"
,4649,2,1280,"[0, 1]",All of the symbols are spades.,0,"[4, 8, 1]",alternative,response,True,1,1,1,,23.984533333333335,1,2,"[0, 1]",,All of the symbols are notes.,"[0, 0, 0]","[0, 0, 0]",,True,Some of the symbols are hearts.,"[3, 9, 2]",True,,1,undefined,"[8, 5, 2]"
,3631,2,1238,"[0, 1]",Some of the symbols are squares.,0,"[4, 7, 8]",alternative,response,True,0,1,0,,23.984533333333335,1,0,"[1, 0]",,Some of the symbols are squares.,"[0, 0, 0]","[0, 0, 0]",,True,Some of the symbols are hearts.,"[5, 9, 7]",True,,1,undefined,"[5, 6, 1]"
,2456,2,758,"[0, 1]",3 + 2 = ?,2,"[9, 2, 0]",alternative,filler,False,1,0,0,,23.984533333333335,1,3,"[1, 0]",,9 + 1 = ?,"[6, 0, 0]","[0, 0, 0]",,False,There is a triangle.,"[5, 3, 2]",False,,1,undefined,"[10, 9, 1]"
,2879,2,1006,"[1, 0]",There are six clubs.,1,"[0, 6, 8]",alternative,response,True,1,0,1,,23.984533333333335,1,2,"[0, 1]",,There are six ticks.,"[0, 0, 0]","[0, 0, 0]",,True,There are four diamonds.,"[1, 7, 2]",True,,0,undefined,"[2, 0, 4]"
,2503,2,742,"[1, 0]",There is a diamond.,2,"[2, 7, 3]",alternative,response,True,0,0,0,,23.984533333333335,1,1,"[1, 0]",,There is a tick.,"[0, 0, 0]","[0, 0, 0]",,True,There is a tick.,"[0, 3, 1]",True,,0,undefined,"[2, 6, 3]"
,4048,2,1480,"[1, 0]",Some of the symbols are notes.,0,"[9, 0, 4]",alternative,response,True,0,0,0,,23.984533333333335,1,0,"[1, 0]",,Some of the symbols are clubs.,"[0, 0, 0]","[0, 0, 0]",,True,Some of the symbols are triangles.,"[8, 7, 6]",True,,0,undefined,"[1, 2, 4]"
,2896,2,926,"[0, 1]",0 + 2 = ?,2,"[1, 3, 5]",alternative,response,True,0,1,0,,23.984533333333335,1,3,"[1, 0]",,8 + 7 = ?,"[3, 0, 0]","[9, 0, 0]",,True,There is a club.,"[2, 0, 2]",True,,1,undefined,"[15, 8, 7]"
,2984,2,1183,"[1, 0]",There are six triangles.,1,"[5, 9, 1]",alternative,response,True,0,0,0,,23.984533333333335,1,2,"[1, 0]",,There are six triangles.,"[0, 0, 0]","[0, 0, 0]",,True,There are four squares.,"[9, 0, 2]",True,,0,undefined,"[9, 6, 7]"
,3439,2,1086,"[1, 0]",All of the symbols are clubs.,0,"[0, 4, 5]",alternative,response,True,0,0,0,,23.984533333333335,1,2,"[1, 0]",,All of the symbols are squares.,"[0, 0, 0]","[0, 0, 0]",,True,Some of the symbols are diamonds.,"[1, 3, 7]",True,,0,undefined,"[5, 4, 2]"
,4472,2,910,"[1, 0]",Some of the symbols are spades.,0,"[5, 2, 3]",alternative,response,True,0,0,0,,23.984533333333335,1,1,"[1, 0]",,Some of the symbols are triangles.,"[0, 0, 0]","[0, 0, 0]",,True,Some of the symbols are squares.,"[3, 4, 0]",True,,0,undefined,"[9, 6, 8]"
,2440,2,847,"[0, 1]",There are six hearts.,1,"[5, 2, 6]",alternative,filler,True,1,1,1,,23.984533333333335,1,2,"[0, 1]",,There are six hearts.,"[0, 0, 0]","[0, 0, 0]",,True,There are four squares.,"[4, 0, 3]",True,,1,undefined,"[4, 9, 3]"
bot_check,,3,,,,,,,,,,,,"[0, 'Margaret']",22.6712,,,,1,,,,,,,,,Margaret,,undefined,
,30102,3,12639,"[0, 1]",Some of the symbols are triangles.,0,"[3, 5, 1]",alternative,filler,False,1,0,1,,22.6712,0,1,"[0, 1]",,Some of the symbols are ticks.,"[0, 0, 0]","[0, 0, 0]",,False,Some of the symbols are spades.,"[9, 2, 6]",True,,1,undefined,"[2, 9, 8]"
,18664,3,11664,"[0, 1]",9 + 0 = ?,2,"[5, 6, 9]",alternative,filler,False,1,0,0,,22.6712,1,3,"[1, 0]",,7 + 1 = ?,"[5, 0, 0]","[3, 0, 0]",,False,There is a square.,"[9, 9, 0]",False,,1,undefined,"[8, 7, 1]"
,22376,3,8439,"[0, 1]",There is a star and a note.,2,"[1, 8, 6]",alternative,filler,True,0,1,0,,22.6712,1,2,"[1, 0]",,There is a tick and a square.,"[0, 0, 0]","[0, 0, 0]",,True,There is a club.,"[6, 8, 9]",True,,1,undefined,"[2, 5, 9]"
,15504,3,6176,"[1, 0]",Some of the symbols are ticks.,0,"[1, 9, 7]",alternative,response,True,1,0,1,,22.6712,0,0,"[0, 1]",,Some of the symbols are spades.,"[0, 0, 0]","[0, 0, 0]",,True,Some of the symbols are clubs.,"[2, 9, 7]",True,,0,undefined,"[3, 8, 1]"
,19438,3,7726,"[1, 0]",3 + 3 = ?,1,"[0, 6, 4]",alternative,filler,False,0,1,1,,22.6712,1,3,"[0, 1]",,7 + 5 = ?,"[3, 0, 0]","[8, 0, 0]",,False,There are four diamonds.,"[6, 3, 3]",False,,0,undefined,"[12, 7, 5]"
,15167,3,6494,"[1, 0]",There are four spades.,1,"[3, 9, 2]",alternative,filler,True,1,0,1,,22.6712,1,1,"[0, 1]",,There are four diamonds.,"[0, 0, 0]","[0, 0, 0]",,True,There are four spades.,"[3, 8, 0]",True,,0,undefined,"[0, 7, 8]"
,15335,3,3927,"[0, 1]",3 + 9 = ?,0,"[5, 2, 4]",alternative,response,True,0,1,0,,22.6712,0,3,"[1, 0]",,0 + 2 = ?,"[8, 0, 0]","[7, 0, 0]",,True,Some of the symbols are squares.,"[12, 3, 9]",True,,1,undefined,"[2, 0, 2]"
,18224,3,7551,"[1, 0]",There are four ticks.,1,"[6, 5, 4]",alternative,response,True,1,0,1,,22.6712,0,0,"[0, 1]",,There are four spades.,"[0, 0, 0]","[0, 0, 0]",,True,There are four stars.,"[2, 0, 4]",True,,0,undefined,"[3, 5, 4]"
,20408,3,7799,"[1, 0]",There is a tick.,2,"[1, 7, 6]",alternative,filler,True,0,0,0,,22.6712,1,1,"[1, 0]",,There is a spade.,"[0, 0, 0]","[0, 0, 0]",,True,There is a club.,"[2, 3, 6]",True,,0,undefined,"[3, 4, 7]"
,17616,3,4783,"[0, 1]",6 + 8 = ?,0,"[1, 0, 6]",alternative,filler,True,0,1,0,,22.6712,1,3,"[1, 0]",,9 + 6 = ?,"[3, 0, 0]","[8, 0, 0]",,True,Some of the symbols are clubs.,"[14, 6, 8]",True,,1,undefined,"[15, 9, 6]"
,17583,3,10655,"[0, 1]",There are six spades.,1,"[3, 2, 4]",alternative,response,True,0,1,0,,22.6712,0,2,"[1, 0]",,There are six circles.,"[0, 0, 0]","[0, 0, 0]",,True,There are four spades.,"[3, 0, 1]",True,,1,undefined,"[7, 2, 8]"
,10592,3,4135,"[1, 0]",Some of the symbols are ticks.,0,"[9, 0, 7]",alternative,filler,True,1,0,1,,22.6712,1,0,"[0, 1]",,Some of the symbols are spades.,"[0, 0, 0]","[0, 0, 0]",,True,Some of the symbols are triangles.,"[2, 9, 0]",True,,0,undefined,"[3, 4, 0]"
,6808,3,2399,"[1, 0]",There are six spades.,1,"[9, 5, 2]",alternative,filler,True,1,0,1,,22.6712,1,2,"[0, 1]",,There are six squares.,"[0, 0, 0]","[0, 0, 0]",,True,There are four triangles.,"[3, 4, 8]",True,,0,undefined,"[5, 9, 1]"
,10472,3,3071,"[1, 0]",Some of the symbols are ticks.,0,"[0, 5, 1]",alternative,filler,False,0,1,1,,22.6712,1,1,"[0, 1]",,Some of the symbols are stars.,"[0, 0, 0]","[0, 0, 0]",,False,Some of the symbols are diamonds.,"[2, 6, 7]",False,,0,undefined,"[6, 9, 0]"
,8871,3,3575,"[1, 0]",All of the symbols are stars.,0,"[1, 5, 4]",alternative,filler,True,0,0,0,,22.6712,1,2,"[1, 0]",,All of the symbols are squares.,"[0, 0, 0]","[0, 0, 0]",,True,Some of the symbols are clubs.,"[6, 5, 8]",True,,0,undefined,"[5, 1, 6]"
,11176,3,4783,"[0, 1]",Some of the symbols are stars.,0,"[8, 1, 4]",alternative,filler,True,0,1,0,,22.6712,1,0,"[1, 0]",,Some of the symbols are clubs.,"[0, 0, 0]","[0, 0, 0]",,True,Some of the symbols are notes.,"[6, 5, 8]",True,,1,undefined,"[1, 9, 5]"
,9664,3,2831,"[0, 1]",0 + 5 = ?,1,"[5, 2, 4]",alternative,response,False,1,0,0,,22.6712,1,3,"[1, 0]",,3 + 8 = ?,"[9, 0, 0]","[8, 0, 0]",,False,There are four squares.,"[5, 0, 5]",False,,1,undefined,"[11, 3, 8]"
,7992,3,2559,"[1, 0]",There is a spade.,2,"[2, 4, 9]",alternative,response,True,1,0,1,,22.6712,0,1,"[0, 1]",,There is a heart.,"[0, 0, 0]","[0, 0, 0]",,True,There is a tick.,"[3, 2, 9]",True,,0,undefined,"[4, 2, 5]"
,7152,3,2079,"[0, 1]",There are six ticks.,1,"[0, 7, 5]",alternative,response,True,0,1,0,,22.6712,1,2,"[1, 0]",,There are six ticks.,"[0, 0, 0]","[0, 0, 0]",,True,There are four diamonds.,"[2, 3, 8]",True,,1,undefined,"[2, 6, 1]"
,7280,3,3255,"[1, 0]",7 + 0 = ?,1,"[9, 5, 7]",alternative,filler,False,0,1,0,,22.6712,1,3,"[1, 0]",,5 + 4 = ?,"[8, 0, 0]","[8, 0, 0]",,False,There are four triangles.,"[7, 7, 0]",True,,0,undefined,"[9, 5, 4]"
,9087,3,4455,"[0, 1]",All of the symbols are ticks.,0,"[3, 6, 9]",alternative,filler,True,0,1,0,,22.6712,1,2,"[1, 0]",,All of the symbols are notes.,"[0, 0, 0]","[0, 0, 0]",,True,Some of the symbols are spades.,"[2, 6, 1]",True,,1,undefined,"[8, 4, 0]"
,9024,3,3879,"[0, 1]",There are four clubs.,1,"[2, 9, 0]",alternative,filler,True,1,1,1,,22.6712,1,1,"[0, 1]",,There are four diamonds.,"[0, 0, 0]","[0, 0, 0]",,True,There are four ticks.,"[1, 7, 2]",True,,1,undefined,"[0, 4, 1]"
,9592,3,3005,"[1, 0]",There is a club.,2,"[2, 7, 8]",alternative,filler,True,0,0,0,,22.6712,1,1,"[1, 0]",,There is a tick.,"[0, 0, 0]","[0, 0, 0]",,True,There is a tick.,"[1, 3, 6]",True,,0,undefined,"[2, 0, 6]"
,13360,3,3887,"[1, 0]",There are four hearts.,1,"[6, 9, 0]",alternative,filler,True,1,0,1,,22.6712,0,0,"[0, 1]",,There are four clubs.,"[0, 0, 0]","[0, 0, 0]",,True,There are four stars.,"[4, 5, 7]",True,,0,undefined,"[1, 7, 9]"
,10856,3,3311,"[0, 1]",5 + 4 = ?,2,"[4, 3, 8]",alternative,filler,False,1,0,0,,22.6712,1,3,"[1, 0]",,7 + 8 = ?,"[5, 0, 0]","[9, 0, 0]",,False,There is a heart.,"[9, 5, 4]",False,,1,undefined,"[15, 7, 8]"
,7736,3,2263,"[0, 1]",There are four clubs.,1,"[9, 3, 7]",alternative,response,True,1,1,1,,22.6712,0,0,"[0, 1]",,There are four triangles.,"[0, 0, 0]","[0, 0, 0]",,True,There are four triangles.,"[1, 6, 3]",True,,1,undefined,"[9, 4, 7]"
,7920,3,2174,"[0, 1]",There is a note.,2,"[9, 1, 2]",alternative,response,True,1,1,1,,22.6712,0,0,"[0, 1]",,There is a heart.,"[0, 0, 0]","[0, 0, 0]",,True,There is a triangle.,"[8, 0, 6]",True,,1,undefined,"[4, 9, 7]"
,8599,3,2863,"[1, 0]",There is a diamond and a triangle.,2,"[8, 0, 3]",alternative,response,True,1,0,1,,22.6712,0,2,"[0, 1]",,There is a triangle and a heart.,"[0, 0, 0]","[0, 0, 0]",,True,There is a note.,"[0, 9, 2]",True,,0,undefined,"[9, 4, 0]"
,9880,3,3119,"[0, 1]",Some of the symbols are diamonds.,0,"[9, 8, 4]",alternative,response,True,0,1,0,,22.6712,0,0,"[1, 0]",,Some of the symbols are spades.,"[0, 0, 0]","[0, 0, 0]",,True,Some of the symbols are triangles.,"[0, 5, 6]",True,,1,undefined,"[3, 0, 1]"
,8735,3,2135,"[1, 0]",3 + 1 = ?,1,"[6, 2, 3]",alternative,response,True,1,0,1,,22.6712,0,3,"[0, 1]",,5 + 9 = ?,"[2, 0, 0]","[9, 0, 0]",,True,There are four stars.,"[4, 3, 1]",True,,0,undefined,"[14, 5, 9]"
,8799,3,3758,"[0, 1]",There are six stars.,1,"[3, 8, 7]",alternative,response,True,0,1,0,,22.6712,1,2,"[1, 0]",,There are six spades.,"[0, 0, 0]","[0, 0, 0]",,True,There are four spades.,"[6, 5, 4]",True,,1,undefined,"[3, 4, 5]"
,10287,3,4015,"[0, 1]",There are four clubs.,1,"[9, 4, 5]",alternative,response,True,0,1,0,,22.6712,0,1,"[1, 0]",,There are four ticks.,"[0, 0, 0]","[0, 0, 0]",,True,There are four triangles.,"[1, 4, 0]",True,,1,undefined,"[2, 5, 1]"
,8528,3,2726,"[1, 0]",There are four diamonds.,1,"[3, 2, 0]",alternative,response,True,1,0,1,,22.6712,1,1,"[0, 1]",,There are four triangles.,"[0, 0, 0]","[0, 0, 0]",,True,There are four spades.,"[0, 2, 4]",True,,0,undefined,"[9, 5, 8]"
,8280,3,3799,"[0, 1]",5 + 1 = ?,2,"[1, 4, 3]",alternative,response,True,0,1,1,,22.6712,0,3,"[0, 1]",,7 + 1 = ?,"[0, 0, 0]","[4, 0, 0]",,False,There is a club.,"[6, 5, 1]",False,,1,undefined,"[8, 7, 1]"
,9416,3,3511,"[0, 1]",All of the symbols are diamonds.,0,"[9, 5, 6]",alternative,filler,True,1,1,1,,22.6712,1,2,"[0, 1]",,All of the symbols are notes.,"[0, 0, 0]","[0, 0, 0]",,True,Some of the symbols are triangles.,"[0, 5, 1]",True,,1,undefined,"[8, 7, 1]"
,17337,3,9247,"[0, 1]",3 + 5 = ?,2,"[7, 6, 8]",alternative,filler,True,0,1,1,,22.6712,1,3,"[0, 1]",,2 + 0 = ?,"[9, 0, 0]","[1, 0, 0]",,False,There is a circle.,"[8, 3, 5]",False,,1,undefined,"[2, 2, 0]"
,7927,3,1886,"[1, 0]",All of the symbols are notes.,0,"[1, 8, 5]",alternative,response,True,0,0,0,,22.6712,0,2,"[1, 0]",,All of the symbols are clubs.,"[0, 0, 0]","[0, 0, 0]",,True,Some of the symbols are clubs.,"[8, 5, 1]",True,,0,undefined,"[1, 8, 0]"
,7920,3,3199,"[0, 1]",There are six hearts.,1,"[1, 9, 6]",alternative,filler,True,1,1,1,,22.6712,1,2,"[0, 1]",,There are six squares.,"[0, 0, 0]","[0, 0, 0]",,True,There are four clubs.,"[4, 5, 1]",True,,1,undefined,"[5, 4, 8]"
,9000,3,1846,"[1, 0]",5 + 8 = ?,2,"[4, 0, 5]",alternative,response,False,0,1,0,,22.6712,0,3,"[1, 0]",,8 + 5 = ?,"[5, 0, 0]","[0, 0, 0]",,False,There is a heart.,"[13, 5, 8]",True,,0,undefined,"[13, 8, 5]"
,13000,3,4287,"[1, 0]",Some of the symbols are circles.,0,"[8, 2, 6]",alternative,response,True,0,0,0,,22.6712,0,0,"[1, 0]",,Some of the symbols are notes.,"[0, 0, 0]","[0, 0, 0]",,True,Some of the symbols are notes.,"[7, 5, 2]",True,,0,undefined,"[8, 6, 0]"
,10977,3,5264,"[0, 1]",There are six clubs.,1,"[6, 2, 1]",alternative,filler,True,0,1,0,,22.6712,1,2,"[1, 0]",,There are six squares.,"[0, 0, 0]","[0, 0, 0]",,True,There are four stars.,"[1, 7, 4]",True,,1,undefined,"[5, 7, 6]"
,13463,3,7254,"[0, 1]",There are four triangles.,1,"[8, 6, 9]",alternative,filler,True,0,1,0,,22.6712,0,1,"[1, 0]",,There are four squares.,"[0, 0, 0]","[0, 0, 0]",,True,There are four notes.,"[9, 0, 6]",True,,1,undefined,"[5, 9, 1]"
,10232,3,3984,"[1, 0]",There are four diamonds.,1,"[1, 0, 3]",alternative,filler,True,0,0,0,,22.6712,1,0,"[1, 0]",,There are four notes.,"[0, 0, 0]","[0, 0, 0]",,True,There are four clubs.,"[0, 1, 3]",True,,0,undefined,"[8, 4, 6]"
,10023,3,3231,"[1, 0]",There is a heart.,2,"[8, 4, 6]",alternative,filler,True,1,0,1,,22.6712,1,0,"[0, 1]",,There is a note.,"[0, 0, 0]","[0, 0, 0]",,True,There is a note.,"[4, 6, 3]",True,,0,undefined,"[8, 6, 2]"
,19615,3,9287,"[1, 0]",9 + 3 = ?,1,"[7, 2, 3]",alternative,response,True,1,0,0,,22.6712,0,3,"[1, 0]",,2 + 7 = ?,"[1, 0, 0]","[4, 0, 0]",,False,There are four circles.,"[12, 9, 3]",False,,0,undefined,"[9, 2, 7]"
,14543,3,3222,"[0, 1]",All of the symbols are spades.,0,"[7, 0, 5]",alternative,response,True,1,1,0,,22.6712,0,2,"[1, 0]",,All of the symbols are triangles.,"[0, 0, 0]","[0, 0, 0]",,False,Some of the symbols are circles.,"[3, 1, 7]",False,,1,undefined,"[9, 6, 8]"
,12407,3,4462,"[0, 1]",There is a square.,2,"[3, 1, 8]",alternative,filler,True,0,1,0,,22.6712,1,1,"[1, 0]",,There is a star.,"[0, 0, 0]","[0, 0, 0]",,True,There is a spade.,"[5, 1, 0]",True,,1,undefined,"[6, 3, 4]"
,13839,3,4190,"[1, 0]",There is a note.,2,"[6, 3, 5]",alternative,response,True,0,0,0,,22.6712,0,0,"[1, 0]",,There is a club.,"[0, 0, 0]","[0, 0, 0]",,True,There is a star.,"[8, 3, 4]",True,,0,undefined,"[1, 0, 5]"
,10152,3,3263,"[1, 0]",There are four hearts.,1,"[0, 5, 1]",alternative,response,True,1,0,1,,22.6712,0,0,"[0, 1]",,There are four clubs.,"[0, 0, 0]","[0, 0, 0]",,True,There are four diamonds.,"[4, 1, 3]",True,,0,undefined,"[1, 8, 5]"
,11504,3,3655,"[0, 1]",There is a note.,2,"[0, 5, 1]",alternative,filler,True,1,1,1,,22.6712,1,0,"[0, 1]",,There is a triangle.,"[0, 0, 0]","[0, 0, 0]",,True,There is a diamond.,"[8, 5, 6]",True,,1,undefined,"[9, 5, 1]"
,17400,3,5335,"[1, 0]",There is a heart and a circle.,2,"[4, 2, 8]",alternative,response,True,0,0,0,,22.6712,0,2,"[1, 0]",,There is a note and a club.,"[0, 0, 0]","[0, 0, 0]",,True,There is a heart.,"[4, 7, 1]",True,,0,undefined,"[8, 1, 7]"
,10016,3,3199,"[0, 1]",1 + 3 = ?,2,"[9, 4, 5]",alternative,response,False,1,0,1,,22.6712,0,3,"[0, 1]",,1 + 8 = ?,"[6, 0, 0]","[2, 0, 0]",,False,There is a triangle.,"[4, 1, 3]",True,,1,undefined,"[9, 1, 8]"
,17912,3,4359,"[0, 1]",Some of the symbols are hearts.,0,"[6, 1, 4]",alternative,filler,True,1,1,1,,22.6712,1,0,"[0, 1]",,Some of the symbols are circles.,"[0, 0, 0]","[0, 0, 0]",,True,Some of the symbols are stars.,"[4, 5, 6]",True,,1,undefined,"[7, 5, 0]"
,9256,3,2263,"[1, 0]",There is a circle.,2,"[3, 1, 2]",alternative,response,True,1,0,1,,22.6712,0,1,"[0, 1]",,There is a diamond.,"[0, 0, 0]","[0, 0, 0]",,True,There is a spade.,"[7, 2, 6]",True,,0,undefined,"[0, 8, 3]"
,13200,3,4199,"[0, 1]",There are four spades.,1,"[6, 2, 8]",alternative,filler,True,1,1,1,,22.6712,1,1,"[0, 1]",,There are four clubs.,"[0, 0, 0]","[0, 0, 0]",,True,There are four stars.,"[3, 2, 5]",True,,1,undefined,"[1, 5, 8]"
,11736,3,4159,"[1, 0]",Some of the symbols are squares.,0,"[5, 7, 1]",alternative,filler,True,0,0,0,,22.6712,1,0,"[1, 0]",,Some of the symbols are stars.,"[0, 0, 0]","[0, 0, 0]",,True,Some of the symbols are squares.,"[5, 4, 0]",True,,0,undefined,"[6, 2, 5]"
,19720,3,9719,"[0, 1]",There is a club and a spade.,2,"[8, 7, 5]",alternative,response,True,1,1,1,,22.6712,0,2,"[0, 1]",,There is a triangle and a spade.,"[0, 0, 0]","[0, 0, 0]",,True,There is a note.,"[1, 3, 0]",True,,1,undefined,"[9, 3, 0]"
,21056,3,9887,"[1, 0]",There is a tick.,2,"[2, 7, 0]",alternative,response,True,0,0,0,,22.6712,1,0,"[1, 0]",,There is a star.,"[0, 0, 0]","[0, 0, 0]",,True,There is a tick.,"[2, 0, 1]",True,,0,undefined,"[6, 2, 9]"
,17824,3,4303,"[1, 0]",Some of the symbols are hearts.,0,"[5, 3, 6]",alternative,filler,True,0,0,1,,22.6712,1,1,"[0, 1]",,Some of the symbols are hearts.,"[0, 0, 0]","[0, 0, 0]",,False,Some of the symbols are squares.,"[4, 5, 8]",False,,0,undefined,"[4, 2, 8]"
,11656,3,3270,"[1, 0]",There are four triangles.,1,"[7, 1, 9]",alternative,response,True,1,0,1,,22.6712,0,0,"[0, 1]",,There are four spades.,"[0, 0, 0]","[0, 0, 0]",,True,There are four circles.,"[9, 0, 8]",True,,0,undefined,"[3, 4, 7]"
,12455,3,3431,"[0, 1]",3 + 6 = ?,0,"[1, 8, 7]",alternative,response,True,0,1,0,,22.6712,0,3,"[1, 0]",,4 + 6 = ?,"[8, 0, 0]","[5, 0, 0]",,True,Some of the symbols are clubs.,"[9, 3, 6]",True,,1,undefined,"[10, 4, 6]"
,18024,3,5031,"[0, 1]",There is a circle.,2,"[0, 2, 1]",alternative,filler,True,0,1,0,,22.6712,1,0,"[1, 0]",,There is a circle.,"[0, 0, 0]","[0, 0, 0]",,True,There is a diamond.,"[7, 6, 0]",True,,1,undefined,"[7, 6, 2]"
,22960,3,5927,"[0, 1]",Some of the symbols are clubs.,0,"[4, 0, 9]",alternative,filler,False,1,0,0,,22.6712,0,1,"[1, 0]",,Some of the symbols are notes.,"[0, 0, 0]","[0, 0, 0]",,False,Some of the symbols are hearts.,"[1, 0, 2]",False,,1,undefined,"[8, 6, 2]"
,24760,3,13855,"[0, 1]",3 + 6 = ?,0,"[3, 6, 0]",alternative,response,False,1,0,1,,22.6712,0,3,"[0, 1]",,0 + 5 = ?,"[3, 0, 0]","[3, 0, 0]",,False,Some of the symbols are spades.,"[9, 3, 6]",True,,1,undefined,"[5, 0, 5]"
,8983,3,2879,"[1, 0]",There is a star.,2,"[2, 5, 6]",alternative,response,True,0,0,0,,22.6712,0,1,"[1, 0]",,There is a spade.,"[0, 0, 0]","[0, 0, 0]",,True,There is a tick.,"[6, 7, 3]",True,,0,undefined,"[3, 0, 5]"
,13720,3,5991,"[0, 1]",There is a circle and a square.,2,"[6, 0, 2]",alternative,filler,True,1,1,1,,22.6712,1,2,"[0, 1]",,There is a tick and a diamond.,"[0, 0, 0]","[0, 0, 0]",,True,There is a star.,"[7, 5, 0]",True,,1,undefined,"[2, 0, 8]"
,9384,3,3303,"[0, 1]",Some of the symbols are ticks.,0,"[3, 1, 0]",alternative,response,True,1,1,1,,22.6712,0,1,"[0, 1]",,Some of the symbols are triangles.,"[0, 0, 0]","[0, 0, 0]",,True,Some of the symbols are spades.,"[2, 6, 7]",True,,1,undefined,"[9, 4, 8]"
,9351,3,2783,"[0, 1]",7 + 6 = ?,0,"[5, 9, 4]",alternative,filler,True,0,1,0,,22.6712,0,3,"[1, 0]",,3 + 9 = ?,"[4, 0, 0]","[1, 0, 0]",,True,Some of the symbols are squares.,"[13, 7, 6]",True,,1,undefined,"[12, 3, 9]"
,10640,3,4023,"[1, 0]",4 + 5 = ?,0,"[6, 9, 2]",alternative,filler,True,1,0,0,,22.6712,1,3,"[1, 0]",,4 + 3 = ?,"[4, 0, 0]","[5, 0, 0]",,False,Some of the symbols are stars.,"[9, 4, 5]",False,,0,undefined,"[7, 4, 3]"
,25192,3,3087,"[1, 0]",There is a tick.,2,"[7, 5, 1]",alternative,filler,True,0,0,0,,22.6712,1,0,"[1, 0]",,There is a tick.,"[0, 0, 0]","[0, 0, 0]",,True,There is a circle.,"[2, 6, 1]",True,,0,undefined,"[2, 7, 5]"
,6960,3,2254,"[1, 0]",All of the symbols are clubs.,0,"[0, 1, 5]",alternative,response,True,1,0,1,,22.6712,0,2,"[0, 1]",,All of the symbols are stars.,"[0, 0, 0]","[0, 0, 0]",,True,Some of the symbols are diamonds.,"[1, 9, 5]",True,,0,undefined,"[6, 0, 3]"
,8368,3,3655,"[1, 0]",There are four spades.,1,"[7, 3, 2]",alternative,filler,True,1,0,1,,22.6712,1,0,"[0, 1]",,There are four circles.,"[0, 0, 0]","[0, 0, 0]",,True,There are four circles.,"[3, 8, 6]",True,,0,undefined,"[7, 1, 6]"
,11384,3,5118,"[0, 1]",There are four squares.,1,"[0, 4, 1]",alternative,filler,True,1,1,1,,22.6712,1,0,"[0, 1]",,There are four spades.,"[0, 0, 0]","[0, 0, 0]",,True,There are four diamonds.,"[5, 7, 6]",True,,1,undefined,"[3, 9, 0]"
,10728,3,3455,"[1, 0]",There is a spade.,2,"[8, 7, 1]",alternative,response,True,0,0,0,,22.6712,0,0,"[1, 0]",,There is a square.,"[0, 0, 0]","[0, 0, 0]",,True,There is a note.,"[3, 8, 0]",True,,0,undefined,"[5, 8, 7]"
,11431,3,2647,"[1, 0]",Some of the symbols are stars.,0,"[6, 7, 5]",alternative,response,True,0,0,1,,22.6712,0,1,"[0, 1]",,Some of the symbols are spades.,"[0, 0, 0]","[0, 0, 0]",,False,Some of the symbols are stars.,"[6, 7, 9]",False,,0,undefined,"[3, 1, 9]"
,13696,3,7039,"[1, 0]",2 + 0 = ?,0,"[2, 8, 7]",alternative,response,True,1,0,0,,22.6712,0,3,"[1, 0]",,5 + 3 = ?,"[1, 0, 0]","[7, 0, 0]",,False,Some of the symbols are ticks.,"[2, 2, 0]",False,,0,undefined,"[8, 5, 3]"
,11192,3,2959,"[1, 0]",There is a spade and a triangle.,2,"[4, 0, 5]",alternative,filler,True,0,0,0,,22.6712,1,2,"[1, 0]",,There is a star and a spade.,"[0, 0, 0]","[0, 0, 0]",,True,There is a heart.,"[3, 9, 2]",True,,0,undefined,"[6, 3, 9]"
,7800,3,2271,"[1, 0]",There is a star and a spade.,2,"[0, 2, 6]",alternative,response,True,0,0,0,,22.6712,0,2,"[1, 0]",,There is a diamond and a square.,"[0, 0, 0]","[0, 0, 0]",,True,There is a diamond.,"[6, 3, 7]",True,,0,undefined,"[0, 5, 2]"
,8784,3,2406,"[0, 1]",There is a star.,2,"[0, 6, 5]",alternative,response,True,0,1,0,,22.6712,0,1,"[1, 0]",,There is a star.,"[0, 0, 0]","[0, 0, 0]",,True,There is a diamond.,"[6, 3, 9]",True,,1,undefined,"[6, 7, 4]"
,11929,3,3128,"[0, 1]",Some of the symbols are spades.,0,"[4, 1, 3]",alternative,response,False,0,0,1,,22.6712,0,1,"[0, 1]",,Some of the symbols are circles.,"[0, 0, 0]","[0, 0, 0]",,False,Some of the symbols are hearts.,"[3, 4, 6]",False,,1,undefined,"[7, 8, 4]"
,11463,3,3343,"[1, 0]",There is a tick.,2,"[8, 3, 9]",alternative,filler,True,1,0,1,,22.6712,1,1,"[0, 1]",,There is a heart.,"[0, 0, 0]","[0, 0, 0]",,True,There is a note.,"[2, 9, 0]",True,,0,undefined,"[4, 6, 9]"
,7888,3,2647,"[0, 1]",There are four clubs.,1,"[0, 7, 5]",alternative,response,True,1,1,1,,22.6712,0,1,"[0, 1]",,There are four triangles.,"[0, 0, 0]","[0, 0, 0]",,True,There are four diamonds.,"[1, 9, 5]",True,,1,undefined,"[9, 6, 8]"
,11737,3,3320,"[0, 1]",5 + 0 = ?,1,"[8, 0, 9]",alternative,filler,True,0,1,1,,22.6712,0,3,"[0, 1]",,5 + 2 = ?,"[3, 0, 0]","[4, 0, 0]",,False,There are four notes.,"[5, 5, 0]",False,,1,undefined,"[7, 5, 2]"
,19128,3,5200,"[1, 0]",There is a circle and a spade.,2,"[8, 2, 5]",alternative,filler,True,0,0,0,,22.6712,1,2,"[1, 0]",,There is a circle and a club.,"[0, 0, 0]","[0, 0, 0]",,True,There is a note.,"[7, 3, 1]",True,,0,undefined,"[7, 1, 0]"
,30295,3,17439,"[1, 0]",5 + 4 = ?,1,"[9, 0, 4]",alternative,filler,True,1,0,0,,22.6712,0,3,"[1, 0]",,6 + 1 = ?,"[5, 0, 0]","[4, 0, 0]",,False,There are four triangles.,"[9, 5, 4]",False,,0,undefined,"[7, 6, 1]"
,8840,3,3991,"[1, 0]",4 + 4 = ?,0,"[0, 2, 3]",alternative,filler,True,1,0,0,,22.6712,1,3,"[1, 0]",,6 + 9 = ?,"[9, 0, 0]","[7, 0, 0]",,False,Some of the symbols are diamonds.,"[8, 4, 4]",False,,0,undefined,"[15, 6, 9]"
,8383,3,3343,"[1, 0]",Some of the symbols are hearts.,0,"[2, 8, 6]",alternative,response,False,0,1,1,,22.6712,0,1,"[0, 1]",,Some of the symbols are ticks.,"[0, 0, 0]","[0, 0, 0]",,False,Some of the symbols are ticks.,"[4, 2, 3]",False,,0,undefined,"[2, 3, 1]"
,9456,3,4198,"[0, 1]",There are four triangles.,1,"[1, 5, 7]",alternative,response,True,0,1,0,,22.6712,0,1,"[1, 0]",,There are four ticks.,"[0, 0, 0]","[0, 0, 0]",,True,There are four clubs.,"[9, 1, 0]",True,,1,undefined,"[2, 1, 6]"
,10776,3,2183,"[0, 1]",8 + 2 = ?,2,"[4, 2, 5]",alternative,response,False,1,0,1,,22.6712,0,3,"[0, 1]",,7 + 3 = ?,"[1, 0, 0]","[6, 0, 0]",,False,There is a heart.,"[10, 8, 2]",True,,1,undefined,"[10, 7, 3]"
,11497,3,5720,"[0, 1]",All of the symbols are ticks.,0,"[9, 0, 3]",alternative,response,True,1,1,1,,22.6712,0,2,"[0, 1]",,All of the symbols are notes.,"[0, 0, 0]","[0, 0, 0]",,True,Some of the symbols are triangles.,"[2, 1, 0]",True,,1,undefined,"[8, 6, 4]"
,14327,3,4327,"[0, 1]",5 + 7 = ?,2,"[1, 5, 8]",alternative,filler,True,0,1,1,,22.6712,1,3,"[0, 1]",,6 + 3 = ?,"[4, 0, 0]","[6, 0, 0]",,False,There is a club.,"[12, 5, 7]",False,,1,undefined,"[9, 6, 3]"
,6912,3,1959,"[1, 0]",7 + 9 = ?,1,"[1, 6, 8]",alternative,response,True,1,0,0,,22.6712,0,3,"[1, 0]",,0 + 2 = ?,"[9, 0, 0]","[6, 0, 0]",,False,There are four clubs.,"[16, 7, 9]",False,,0,undefined,"[2, 0, 2]"
,5992,3,1885,"[0, 1]",There are six circles.,1,"[1, 8, 9]",alternative,response,True,1,1,1,,22.6712,0,2,"[0, 1]",,There are six clubs.,"[0, 0, 0]","[0, 0, 0]",,True,There are four clubs.,"[7, 6, 0]",True,,1,undefined,"[1, 6, 8]"
,10800,3,3815,"[1, 0]",All of the symbols are hearts.,0,"[3, 7, 8]",alternative,filler,True,1,0,1,,22.6712,1,2,"[0, 1]",,All of the symbols are notes.,"[0, 0, 0]","[0, 0, 0]",,True,Some of the symbols are spades.,"[4, 1, 0]",True,,0,undefined,"[8, 6, 4]"
,8856,3,4527,"[1, 0]",There are six squares.,1,"[8, 2, 5]",alternative,filler,True,1,0,1,,22.6712,1,2,"[0, 1]",,There are six squares.,"[0, 0, 0]","[0, 0, 0]",,True,There are four notes.,"[5, 7, 9]",True,,0,undefined,"[5, 7, 0]"
,9224,3,3678,"[0, 1]",Some of the symbols are ticks.,0,"[7, 2, 1]",alternative,response,True,0,1,0,,22.6712,0,0,"[1, 0]",,Some of the symbols are triangles.,"[0, 0, 0]","[0, 0, 0]",,True,Some of the symbols are circles.,"[2, 0, 7]",True,,1,undefined,"[9, 7, 3]"
bot_check,,4,,,,,,,,,,,,"[0, 'patricia']",34.1809,,,,1,,,,,,,,,Patricia,,undefined,
,21888,4,6679,"[1, 0]",There is a tick.,2,"[5, 0, 9]",alternative,response,True,1,0,1,,34.1809,0,1,"[0, 1]",,There is a square.,"[0, 0, 0]","[0, 0, 0]",,True,There is a square.,"[2, 0, 1]",True,,0,undefined,"[5, 2, 6]"
,361354,4,339254,"[1, 0]",There are four ticks.,1,"[5, 8, 2]",alternative,response,True,0,0,0,,34.1809,0,1,"[1, 0]",,There are four stars.,"[0, 0, 0]","[0, 0, 0]",,True,There are four squares.,"[2, 1, 9]",True,,0,undefined,"[6, 2, 5]"
,11007,4,3782,"[1, 0]",There are four ticks.,1,"[4, 2, 7]",alternative,filler,True,0,0,0,,34.1809,1,1,"[1, 0]",,There are four circles.,"[0, 0, 0]","[0, 0, 0]",,True,There are four hearts.,"[2, 5, 6]",True,,0,undefined,"[7, 8, 5]"
,18349,4,10173,"[1, 0]",All of the symbols are hearts.,0,"[8, 3, 7]",alternative,response,True,1,0,1,,34.1809,1,2,"[0, 1]",,All of the symbols are stars.,"[0, 0, 0]","[0, 0, 0]",,True,Some of the symbols are notes.,"[4, 7, 5]",True,,0,undefined,"[6, 5, 7]"
,11884,4,4518,"[1, 0]",There are four triangles.,1,"[2, 3, 5]",alternative,response,True,1,0,1,,34.1809,1,0,"[0, 1]",,There are four hearts.,"[0, 0, 0]","[0, 0, 0]",,True,There are four ticks.,"[9, 1, 3]",True,,0,undefined,"[4, 1, 8]"
,14946,4,3406,"[1, 0]",Some of the symbols are notes.,0,"[3, 7, 0]",alternative,filler,True,0,0,0,,34.1809,1,1,"[1, 0]",,Some of the symbols are clubs.,"[0, 0, 0]","[0, 0, 0]",,True,Some of the symbols are spades.,"[8, 2, 1]",True,,0,undefined,"[1, 5, 7]"
,13701,4,2964,"[1, 0]",There are six triangles.,1,"[1, 7, 6]",alternative,filler,True,0,0,0,,34.1809,1,2,"[1, 0]",,There are six triangles.,"[0, 0, 0]","[0, 0, 0]",,True,There are four clubs.,"[9, 6, 1]",True,,0,undefined,"[9, 7, 6]"
,10589,4,3710,"[0, 1]",Some of the symbols are clubs.,0,"[6, 5, 7]",alternative,filler,True,1,1,1,,34.1809,1,0,"[0, 1]",,Some of the symbols are spades.,"[0, 0, 0]","[0, 0, 0]",,True,Some of the symbols are stars.,"[1, 2, 6]",True,,1,undefined,"[3, 7, 1]"
,9877,4,2806,"[0, 1]",There are four diamonds.,1,"[4, 8, 6]",alternative,filler,True,1,1,1,,34.1809,1,1,"[0, 1]",,There are four spades.,"[0, 0, 0]","[0, 0, 0]",,True,There are four hearts.,"[0, 1, 8]",True,,1,undefined,"[3, 5, 8]"
,13430,4,6095,"[0, 1]",All of the symbols are triangles.,0,"[8, 5, 6]",alternative,response,True,1,1,1,,34.1809,0,2,"[0, 1]",,All of the symbols are ticks.,"[0, 0, 0]","[0, 0, 0]",,True,Some of the symbols are notes.,"[9, 7, 5]",True,,1,undefined,"[2, 9, 0]"
,10369,4,3213,"[1, 0]",Some of the symbols are circles.,0,"[6, 3, 9]",alternative,response,True,0,0,0,,34.1809,0,0,"[1, 0]",,Some of the symbols are clubs.,"[0, 0, 0]","[0, 0, 0]",,True,Some of the symbols are stars.,"[7, 6, 3]",True,,0,undefined,"[1, 5, 2]"
,16601,4,6299,"[1, 0]",There are six notes.,1,"[4, 9, 1]",alternative,response,True,0,0,0,,34.1809,0,2,"[1, 0]",,There are six diamonds.,"[0, 0, 0]","[0, 0, 0]",,True,There are four hearts.,"[8, 9, 7]",True,,0,undefined,"[0, 1, 9]"
,10947,4,3493,"[1, 0]",There is a heart and a star.,2,"[1, 8, 9]",alternative,filler,True,1,0,1,,34.1809,1,2,"[0, 1]",,There is a heart and a triangle.,"[0, 0, 0]","[0, 0, 0]",,True,There is a club.,"[4, 6, 0]",True,,0,undefined,"[4, 9, 6]"
,11683,4,2438,"[1, 0]",There are four squares.,1,"[4, 3, 8]",alternative,filler,True,1,0,1,,34.1809,1,1,"[0, 1]",,There are four squares.,"[0, 0, 0]","[0, 0, 0]",,True,There are four hearts.,"[5, 9, 4]",True,,0,undefined,"[5, 6, 4]"
,7695,4,2474,"[0, 1]",There is a spade and a club.,2,"[0, 5, 3]",alternative,response,True,0,1,0,,34.1809,0,2,"[1, 0]",,There is a tick and a circle.,"[0, 0, 0]","[0, 0, 0]",,True,There is a diamond.,"[3, 1, 0]",True,,1,undefined,"[2, 7, 0]"
,11358,4,3942,"[1, 0]",5 + 7 = ?,0,"[0, 6, 8]",alternative,response,True,1,0,1,,34.1809,0,3,"[0, 1]",,5 + 4 = ?,"[6, 0, 0]","[3, 0, 0]",,True,Some of the symbols are diamonds.,"[12, 5, 7]",True,,0,undefined,"[9, 5, 4]"
,8400,4,2489,"[0, 1]",There are four spades.,1,"[1, 6, 5]",alternative,filler,True,0,1,0,,34.1809,1,0,"[1, 0]",,There are four triangles.,"[0, 0, 0]","[0, 0, 0]",,True,There are four clubs.,"[3, 1, 7]",True,,1,undefined,"[9, 0, 2]"
,10101,4,2321,"[0, 1]",2 + 3 = ?,2,"[2, 8, 5]",alternative,response,True,0,1,1,,34.1809,0,3,"[0, 1]",,5 + 7 = ?,"[7, 0, 0]","[6, 0, 0]",,False,There is a tick.,"[5, 2, 3]",False,,1,undefined,"[12, 5, 7]"
,9529,4,2941,"[0, 1]",4 + 4 = ?,2,"[7, 0, 5]",alternative,response,True,0,1,1,,34.1809,0,3,"[0, 1]",,0 + 4 = ?,"[3, 0, 0]","[9, 0, 0]",,False,There is a circle.,"[8, 4, 4]",False,,1,undefined,"[4, 0, 4]"
,8419,4,2806,"[1, 0]",There is a square.,2,"[4, 0, 9]",alternative,response,True,1,0,1,,34.1809,0,0,"[0, 1]",,There is a note.,"[0, 0, 0]","[0, 0, 0]",,True,There is a heart.,"[5, 1, 9]",True,,0,undefined,"[8, 4, 3]"
,8443,4,2899,"[0, 1]",4 + 0 = ?,1,"[7, 9, 5]",alternative,response,True,0,1,1,,34.1809,0,3,"[0, 1]",,0 + 4 = ?,"[5, 0, 0]","[2, 0, 0]",,False,There are four circles.,"[4, 4, 0]",False,,1,undefined,"[4, 0, 4]"
,10085,4,2848,"[1, 0]",There is a triangle.,2,"[5, 3, 2]",alternative,response,True,0,0,0,,34.1809,0,1,"[1, 0]",,There is a triangle.,"[0, 0, 0]","[0, 0, 0]",,True,There is a square.,"[9, 6, 0]",True,,0,undefined,"[9, 0, 4]"
,8623,4,2787,"[1, 0]",There is a star.,2,"[7, 6, 3]",alternative,filler,True,1,0,1,,34.1809,1,1,"[0, 1]",,There is a triangle.,"[0, 0, 0]","[0, 0, 0]",,True,There is a circle.,"[6, 4, 7]",True,,0,undefined,"[9, 8, 0]"
,8454,4,2929,"[0, 1]",7 + 5 = ?,1,"[7, 9, 6]",alternative,filler,False,1,0,1,,34.1809,1,3,"[0, 1]",,4 + 1 = ?,"[8, 0, 0]","[9, 0, 0]",,False,There are four circles.,"[12, 7, 5]",True,,1,undefined,"[5, 4, 1]"
,9224,4,3010,"[1, 0]",0 + 1 = ?,1,"[4, 5, 2]",alternative,response,True,1,0,0,,34.1809,0,3,"[1, 0]",,0 + 8 = ?,"[2, 0, 0]","[9, 0, 0]",,False,There are four hearts.,"[1, 0, 1]",False,,0,undefined,"[8, 0, 8]"
,15008,4,3037,"[0, 1]",Some of the symbols are clubs.,0,"[8, 0, 2]",alternative,response,True,0,1,0,,34.1809,0,1,"[1, 0]",,Some of the symbols are hearts.,"[0, 0, 0]","[0, 0, 0]",,True,Some of the symbols are notes.,"[1, 0, 4]",True,,1,undefined,"[4, 2, 0]"
,7821,4,2406,"[1, 0]",There is a square and a circle.,2,"[2, 7, 4]",alternative,filler,True,0,0,0,,34.1809,1,2,"[1, 0]",,There is a circle and a square.,"[0, 0, 0]","[0, 0, 0]",,True,There is a tick.,"[5, 7, 9]",True,,0,undefined,"[7, 5, 6]"
,8495,4,3726,"[0, 1]",There are four spades.,1,"[4, 1, 7]",alternative,response,True,1,1,1,,34.1809,0,0,"[0, 1]",,There are four diamonds.,"[0, 0, 0]","[0, 0, 0]",,True,There are four hearts.,"[3, 9, 8]",True,,1,undefined,"[0, 4, 6]"
,8455,4,2284,"[0, 1]",Some of the symbols are stars.,0,"[2, 8, 6]",alternative,response,True,1,1,1,,34.1809,0,1,"[0, 1]",,Some of the symbols are spades.,"[0, 0, 0]","[0, 0, 0]",,True,Some of the symbols are ticks.,"[6, 1, 7]",True,,1,undefined,"[3, 6, 8]"
