pTSymbols,primeType,responseSentence,primeOShuffle,trial_type,pTChoice,slide_type,goodPTChoice,primeStrength,pOSymbols,workerid,pTwrongAnswer,correctPTChoice,correctPOChoice,correctPChoices,pOSentence,pOChoice,slide_number,response,responseChoice,image,pTSentence,audio,block_rt,Answer.condition,btwncondition,goodPOChoice,responseSymbols,Answer.time_in_minutes,response_rt,pOwrongAnswer,primeTShuffle
,,,,,,bot_check,,,,0,,,,,,,1,"[0, 'susan']",,Susan,,,,undefined,,,,10.74395,,,
"[2, 7, 5]",0,Some of the symbols are spades.,"[0, 1]",response,1,,1,1,"[9, 5, 6]",0,"[0, 0, 0]",True,True,True,Some of the symbols are triangles.,1,,,1,,Some of the symbols are ticks.,,8240,undefined,exh-subclausal,1,"[3, 6, 1]",10.74395,2224,"[0, 0, 0]","[0, 1]"
"[1, 8, 7]",2,There is a club.,"[0, 1]",response,0,,0,1,"[2, 1, 7]",0,"[0, 0, 0]",True,True,True,There is a tick.,1,,,1,,There is a club.,,6391,undefined,exh-subclausal,1,"[1, 2, 8]",10.74395,2263,"[0, 0, 0]","[1, 0]"
"[0, 2, 5]",2,There is a square.,"[1, 0]",response,0,,0,0,"[5, 6, 1]",0,"[0, 0, 0]",True,True,True,There is a square.,0,,,1,,There is a diamond.,,6872,undefined,exh-subclausal,0,"[5, 4, 8]",10.74395,3352,"[0, 0, 0]","[1, 0]"
"[4, 9, 8]",1,There are four spades.,"[0, 1]",filler,1,,1,2,"[9, 1, 4]",0,"[0, 0, 0]",True,True,True,There are four but no more than four triangles.,1,,,1,,There are four but no more than four hearts.,,8376,undefined,exh-subclausal,1,"[3, 5, 2]",10.74395,1303,"[0, 0, 0]","[0, 1]"
"[0, 5, 8]",0,Some of the symbols are diamonds.,"[0, 1]",filler,0,,0,0,"[0, 5, 1]",0,"[0, 0, 0]",True,True,True,Some of the symbols are diamonds.,1,,,1,,Some of the symbols are diamonds.,,7416,undefined,exh-subclausal,1,"[0, 5, 9]",10.74395,1504,"[0, 0, 0]","[1, 0]"
"[4, 2, 9]",0,Some of the symbols are triangles.,"[0, 1]",response,1,,1,2,"[7, 8, 6]",0,"[0, 0, 0]",True,True,True,Some but not all of the symbols are circles.,1,,,1,,Some but not all of the symbols are hearts.,,7055,undefined,exh-subclausal,1,"[9, 3, 4]",10.74395,2166,"[0, 0, 0]","[0, 1]"
"[6, 2, 9]",1,There are four spades.,"[0, 1]",response,0,,0,1,"[0, 2, 4]",0,"[0, 0, 0]",True,True,True,There are four diamonds.,1,,,1,,There are four stars.,,3455,undefined,exh-subclausal,1,"[3, 1, 6]",10.74395,1183,"[0, 0, 0]","[1, 0]"
"[6, 1, 2]",1,There are four diamonds.,"[0, 1]",response,0,,0,0,"[7, 0, 9]",0,"[0, 0, 0]",True,True,True,There are four circles.,1,,,1,,There are four stars.,,6969,undefined,exh-subclausal,1,"[0, 4, 7]",10.74395,1944,"[0, 0, 0]","[1, 0]"
"[8, 0, 6]",1,There are four triangles.,"[0, 1]",response,0,,0,1,"[2, 6, 3]",0,"[0, 0, 0]",True,True,True,There are four ticks.,1,,,1,,There are four notes.,,4071,undefined,exh-subclausal,1,"[9, 4, 7]",10.74395,1559,"[0, 0, 0]","[1, 0]"
"[7, 6, 5]",0,Some of the symbols are circles.,"[1, 0]",response,1,,1,0,"[0, 2, 4]",0,"[0, 0, 0]",True,True,True,Some of the symbols are diamonds.,0,,,1,,Some of the symbols are circles.,,7417,undefined,exh-subclausal,0,"[7, 6, 0]",10.74395,1896,"[0, 0, 0]","[0, 1]"
"[11, 4, 7]",0,Some of the symbols are ticks.,"[1, 0]",filler,0,,0,3,"[3, 3, 0]",0,"[3, 0, 0]",True,True,True,3 + 0 = ?,0,,,1,,4 + 7 = ?,,11168,undefined,exh-subclausal,0,"[2, 7, 6]",10.74395,2047,"[3, 0, 0]","[1, 0]"
"[11, 9, 2]",1,There are four ticks.,"[1, 0]",response,1,,1,3,"[8, 4, 4]",0,"[2, 0, 0]",True,True,True,4 + 4 = ?,0,,,1,,9 + 2 = ?,,5063,undefined,exh-subclausal,0,"[2, 8, 9]",10.74395,1686,"[5, 0, 0]","[0, 1]"
"[8, 8, 0]",1,There are four clubs.,"[0, 1]",filler,0,,0,3,"[11, 8, 3]",0,"[8, 0, 0]",True,True,True,8 + 3 = ?,1,,,1,,8 + 0 = ?,,5104,undefined,exh-subclausal,1,"[1, 0, 2]",10.74395,1960,"[2, 0, 0]","[1, 0]"
"[6, 7, 2]",1,There are four stars.,"[1, 0]",response,1,,1,1,"[3, 1, 2]",0,"[0, 0, 0]",True,True,True,There are four spades.,0,,,1,,There are four stars.,,4288,undefined,exh-subclausal,0,"[6, 8, 9]",10.74395,1968,"[0, 0, 0]","[0, 1]"
"[13, 4, 9]",1,There are four notes.,"[1, 0]",filler,1,,1,3,"[11, 5, 6]",0,"[6, 0, 0]",True,True,True,5 + 6 = ?,0,,,1,,4 + 9 = ?,,5560,undefined,exh-subclausal,0,"[8, 6, 9]",10.74395,1392,"[3, 0, 0]","[0, 1]"
"[1, 3, 9]",0,Some of the symbols are stars.,"[0, 1]",response,1,,0,0,"[0, 3, 1]",0,"[0, 0, 0]",False,True,False,Some of the symbols are diamonds.,1,,,1,,Some of the symbols are clubs.,,15072,undefined,exh-subclausal,1,"[6, 7, 2]",10.74395,7704,"[0, 0, 0]","[1, 0]"
"[4, 1, 6]",0,Some of the symbols are ticks.,"[1, 0]",filler,0,,0,0,"[8, 9, 7]",0,"[0, 0, 0]",True,True,True,Some of the symbols are notes.,0,,,1,,Some of the symbols are hearts.,,6592,undefined,exh-subclausal,0,"[2, 0, 4]",10.74395,1783,"[0, 0, 0]","[1, 0]"
"[1, 4, 0]",0,Some of the symbols are squares.,"[0, 1]",response,1,,1,1,"[2, 5, 0]",0,"[0, 0, 0]",True,True,True,Some of the symbols are ticks.,1,,,1,,Some of the symbols are clubs.,,7136,undefined,exh-subclausal,1,"[5, 4, 9]",10.74395,3400,"[0, 0, 0]","[0, 1]"
"[6, 5, 8]",1,There are four spades.,"[1, 0]",filler,1,,1,0,"[5, 4, 3]",0,"[0, 0, 0]",True,True,True,There are four squares.,0,,,1,,There are four stars.,,6112,undefined,exh-subclausal,0,"[3, 9, 6]",10.74395,2615,"[0, 0, 0]","[0, 1]"
"[1, 8, 6]",0,Some of the symbols are hearts.,"[1, 0]",response,1,,1,0,"[1, 8, 7]",0,"[0, 0, 0]",True,True,True,Some of the symbols are clubs.,0,,,1,,Some of the symbols are clubs.,,16952,undefined,exh-subclausal,0,"[4, 1, 9]",10.74395,1831,"[0, 0, 0]","[0, 1]"
"[11, 2, 9]",1,There are four hearts.,"[1, 0]",response,0,,0,3,"[8, 8, 0]",0,"[4, 0, 0]",True,False,False,8 + 0 = ?,1,,,1,,2 + 9 = ?,,6767,undefined,exh-subclausal,0,"[4, 3, 2]",10.74395,1951,"[9, 0, 0]","[1, 0]"
"[8, 5, 1]",2,There is a club.,"[0, 1]",filler,0,,0,0,"[5, 1, 4]",0,"[0, 0, 0]",True,True,True,There is a square.,1,,,1,,There is a note.,,4497,undefined,exh-subclausal,1,"[1, 0, 5]",10.74395,1472,"[0, 0, 0]","[1, 0]"
"[12, 6, 6]",0,Some of the symbols are circles.,"[1, 0]",response,0,,1,3,"[5, 2, 3]",0,"[3, 0, 0]",False,False,False,2 + 3 = ?,1,,,1,,6 + 6 = ?,,4312,undefined,exh-subclausal,0,"[7, 5, 1]",10.74395,1560,"[8, 0, 0]","[0, 1]"
"[4, 9, 7]",0,Some of the symbols are triangles.,"[1, 0]",response,0,,0,2,"[1, 0, 7]",0,"[0, 0, 0]",True,True,True,Some but not all of the symbols are clubs.,0,,,1,,Some but not all of the symbols are hearts.,,7439,undefined,exh-subclausal,0,"[9, 1, 7]",10.74395,2479,"[0, 0, 0]","[1, 0]"
"[4, 6, 3]",2,There is a spade.,"[1, 0]",response,1,,1,2,"[8, 5, 4]",0,"[0, 0, 0]",True,True,True,There is a note but nothing else.,0,,,0,,There is a heart but nothing else.,,7336,undefined,exh-subclausal,0,"[3, 0, 9]",10.74395,2839,"[0, 0, 0]","[0, 1]"
"[11, 3, 8]",2,There is a spade.,"[1, 0]",filler,0,,0,3,"[8, 8, 0]",0,"[1, 0, 0]",True,False,False,8 + 0 = ?,1,,,1,,3 + 8 = ?,,4497,undefined,exh-subclausal,0,"[3, 0, 8]",10.74395,1319,"[4, 0, 0]","[1, 0]"
"[12, 7, 5]",1,There are four stars.,"[1, 0]",filler,0,,0,3,"[15, 6, 9]",0,"[5, 0, 0]",True,False,False,6 + 9 = ?,1,,,1,,7 + 5 = ?,,6344,undefined,exh-subclausal,0,"[6, 3, 8]",10.74395,1560,"[2, 0, 0]","[1, 0]"
"[13, 7, 6]",0,Some of the symbols are triangles.,"[0, 1]",response,0,,0,3,"[2, 1, 1]",0,"[1, 0, 0]",True,True,True,1 + 1 = ?,1,,,1,,7 + 6 = ?,,5576,undefined,exh-subclausal,1,"[9, 3, 7]",10.74395,1928,"[1, 0, 0]","[1, 0]"
"[7, 3, 8]",2,There is a circle.,"[0, 1]",response,1,,1,2,"[0, 3, 4]",0,"[0, 0, 0]",True,True,True,There is a diamond but nothing else.,1,,,1,,There is a circle but nothing else.,,5736,undefined,exh-subclausal,1,"[7, 6, 1]",10.74395,2680,"[0, 0, 0]","[0, 1]"
"[3, 7, 6]",0,Some of the symbols are clubs.,"[0, 1]",filler,1,,1,2,"[2, 1, 5]",0,"[0, 0, 0]",True,True,True,Some but not all of the symbols are ticks.,1,,,1,,Some but not all of the symbols are spades.,,6736,undefined,exh-subclausal,1,"[1, 7, 2]",10.74395,1872,"[0, 0, 0]","[0, 1]"
"[5, 1, 8]",0,Some of the symbols are notes.,"[1, 0]",filler,1,,1,2,"[0, 5, 3]",0,"[0, 0, 0]",True,True,True,Some but not all of the symbols are diamonds.,0,,,1,,Some but not all of the symbols are squares.,,7352,undefined,exh-subclausal,0,"[8, 3, 2]",10.74395,2560,"[0, 0, 0]","[0, 1]"
"[8, 6, 3]",0,Some of the symbols are circles.,"[0, 1]",filler,0,,0,0,"[3, 5, 2]",0,"[0, 0, 0]",True,True,True,Some of the symbols are spades.,1,,,1,,Some of the symbols are notes.,,7768,undefined,exh-subclausal,1,"[7, 2, 8]",10.74395,1848,"[0, 0, 0]","[1, 0]"
"[8, 3, 7]",2,There is a tick.,"[1, 0]",response,1,,1,1,"[8, 3, 9]",0,"[0, 0, 0]",True,True,True,There is a note.,0,,,1,,There is a note.,,5752,undefined,exh-subclausal,0,"[2, 5, 0]",10.74395,2759,"[0, 0, 0]","[0, 1]"
"[7, 5, 2]",2,There is a square.,"[0, 1]",response,0,,1,3,"[12, 5, 7]",0,"[1, 0, 0]",False,True,False,5 + 7 = ?,1,,,1,,5 + 2 = ?,,5511,undefined,exh-subclausal,1,"[5, 1, 2]",10.74395,1423,"[1, 0, 0]","[0, 1]"
"[11, 9, 2]",2,There is a spade.,"[0, 1]",response,1,,0,3,"[12, 5, 7]",0,"[1, 0, 0]",False,False,False,5 + 7 = ?,0,,,1,,9 + 2 = ?,,5608,undefined,exh-subclausal,1,"[3, 5, 0]",10.74395,1375,"[5, 0, 0]","[1, 0]"
"[17, 8, 9]",2,There is a circle.,"[1, 0]",filler,0,,1,3,"[3, 2, 1]",0,"[9, 0, 0]",False,False,False,2 + 1 = ?,1,,,1,,8 + 9 = ?,,5712,undefined,exh-subclausal,0,"[7, 4, 1]",10.74395,1224,"[2, 0, 0]","[0, 1]"
"[4, 6, 0]",0,Some of the symbols are diamonds.,"[0, 1]",filler,1,,1,0,"[8, 5, 1]",0,"[0, 0, 0]",True,True,True,Some of the symbols are notes.,1,,,1,,Some of the symbols are hearts.,,5831,undefined,exh-subclausal,1,"[0, 8, 2]",10.74395,1767,"[0, 0, 0]","[0, 1]"
"[2, 2, 0]",2,There is a heart.,"[1, 0]",filler,1,,0,3,"[4, 1, 3]",0,"[4, 0, 0]",False,False,False,1 + 3 = ?,1,,,1,,2 + 0 = ?,,5440,undefined,exh-subclausal,0,"[4, 3, 9]",10.74395,1807,"[4, 0, 0]","[1, 0]"
"[4, 8, 7]",2,There is a circle.,"[0, 1]",filler,1,,1,0,"[8, 2, 5]",0,"[0, 0, 0]",True,True,True,There is a note.,1,,,1,,There is a heart.,,5504,undefined,exh-subclausal,1,"[7, 4, 8]",10.74395,1399,"[0, 0, 0]","[0, 1]"
"[2, 3, 5]",1,There are four hearts.,"[0, 1]",response,0,,0,2,"[9, 0, 4]",0,"[0, 0, 0]",True,True,True,There are four but no more than four triangles.,1,,,1,,There are four but no more than four ticks.,,8993,undefined,exh-subclausal,1,"[4, 0, 2]",10.74395,2728,"[0, 0, 0]","[1, 0]"
"[8, 3, 5]",0,Some of the symbols are notes.,"[0, 1]",filler,1,,1,3,"[7, 6, 1]",0,"[5, 0, 0]",True,False,False,6 + 1 = ?,0,,,1,,3 + 5 = ?,,4944,undefined,exh-subclausal,1,"[8, 3, 0]",10.74395,1680,"[8, 0, 0]","[0, 1]"
"[10, 2, 8]",2,There is a heart.,"[1, 0]",response,0,,1,3,"[13, 8, 5]",0,"[9, 0, 0]",False,False,False,8 + 5 = ?,1,,,1,,2 + 8 = ?,,5839,undefined,exh-subclausal,0,"[4, 7, 1]",10.74395,1519,"[7, 0, 0]","[0, 1]"
"[8, 3, 6]",1,There are four notes.,"[0, 1]",filler,1,,1,1,"[5, 9, 7]",0,"[0, 0, 0]",True,True,True,There are four squares.,1,,,1,,There are four notes.,,4912,undefined,exh-subclausal,1,"[8, 3, 4]",10.74395,2463,"[0, 0, 0]","[0, 1]"
"[1, 5, 6]",2,There is a square.,"[0, 1]",response,0,,0,1,"[1, 3, 4]",0,"[0, 0, 0]",True,True,True,There is a club.,1,,,1,,There is a club.,,5928,undefined,exh-subclausal,1,"[5, 2, 7]",10.74395,1424,"[0, 0, 0]","[1, 0]"
"[6, 0, 8]",2,There is a triangle.,"[1, 0]",filler,0,,0,1,"[6, 9, 1]",0,"[0, 0, 0]",True,True,True,There is a star.,0,,,1,,There is a star.,,3896,undefined,exh-subclausal,0,"[9, 7, 0]",10.74395,1304,"[0, 0, 0]","[1, 0]"
"[2, 5, 4]",1,There are four squares.,"[1, 0]",filler,0,,0,0,"[4, 7, 3]",0,"[0, 0, 0]",True,True,True,There are four hearts.,0,,,1,,There are four ticks.,,6096,undefined,exh-subclausal,0,"[5, 7, 0]",10.74395,2912,"[0, 0, 0]","[1, 0]"
"[4, 3, 0]",2,There is a square.,"[0, 1]",filler,0,,0,0,"[1, 2, 9]",0,"[0, 0, 0]",True,True,True,There is a club.,1,,,1,,There is a heart.,,6560,undefined,exh-subclausal,1,"[5, 7, 0]",10.74395,1888,"[0, 0, 0]","[1, 0]"
"[6, 3, 0]",1,There are four circles.,"[0, 1]",response,0,,0,0,"[8, 9, 1]",0,"[0, 0, 0]",True,True,True,There are four notes.,1,,,1,,There are four stars.,,4792,undefined,exh-subclausal,1,"[7, 3, 9]",10.74395,2088,"[0, 0, 0]","[1, 0]"
"[0, 6, 2]",2,There is a tick.,"[0, 1]",response,1,,1,0,"[4, 5, 7]",0,"[0, 0, 0]",True,True,True,There is a heart.,1,,,0,,There is a diamond.,,4416,undefined,exh-subclausal,1,"[2, 3, 6]",10.74395,1176,"[0, 0, 0]","[0, 1]"
"[7, 6, 9]",0,Some of the symbols are circles.,"[1, 0]",filler,0,,0,2,"[1, 5, 0]",0,"[0, 0, 0]",True,True,True,Some but not all of the symbols are clubs.,0,,,1,,Some but not all of the symbols are circles.,,8144,undefined,exh-subclausal,0,"[7, 3, 1]",10.74395,2935,"[0, 0, 0]","[1, 0]"
"[5, 9, 2]",0,Some of the symbols are notes.,"[0, 1]",response,1,,1,0,"[6, 0, 7]",0,"[0, 0, 0]",True,True,True,Some of the symbols are stars.,1,,,1,,Some of the symbols are squares.,,9584,undefined,exh-subclausal,1,"[8, 7, 1]",10.74395,3488,"[0, 0, 0]","[0, 1]"
"[2, 6, 0]",0,Some of the symbols are circles.,"[1, 0]",response,1,,1,2,"[3, 5, 1]",0,"[0, 0, 0]",True,True,True,Some but not all of the symbols are spades.,0,,,1,,Some but not all of the symbols are ticks.,,6688,undefined,exh-subclausal,0,"[7, 4, 1]",10.74395,1992,"[0, 0, 0]","[0, 1]"
"[4, 8, 3]",1,There are four diamonds.,"[0, 1]",response,1,,1,2,"[7, 3, 4]",0,"[0, 0, 0]",True,True,True,There are four but no more than four circles.,1,,,1,,There are four but no more than four hearts.,,5432,undefined,exh-subclausal,1,"[0, 4, 6]",10.74395,1824,"[0, 0, 0]","[0, 1]"
"[6, 6, 0]",1,There are four ticks.,"[1, 0]",response,1,,0,3,"[7, 4, 3]",0,"[9, 0, 0]",False,True,False,4 + 3 = ?,0,,,1,,6 + 0 = ?,,4880,undefined,exh-subclausal,0,"[2, 1, 3]",10.74395,1336,"[5, 0, 0]","[1, 0]"
"[3, 5, 0]",2,There is a square.,"[1, 0]",filler,0,,0,2,"[8, 5, 1]",0,"[0, 0, 0]",True,True,True,There is a note but nothing else.,0,,,1,,There is a spade but nothing else.,,3776,undefined,exh-subclausal,0,"[5, 0, 7]",10.74395,1224,"[0, 0, 0]","[1, 0]"
"[4, 6, 2]",2,There is a tick.,"[1, 0]",filler,1,,1,1,"[1, 3, 0]",0,"[0, 0, 0]",True,True,True,There is a club.,0,,,1,,There is a heart.,,3888,undefined,exh-subclausal,0,"[2, 9, 8]",10.74395,1320,"[0, 0, 0]","[0, 1]"
"[5, 3, 6]",1,There are four circles.,"[0, 1]",filler,1,,1,1,"[2, 6, 5]",0,"[0, 0, 0]",True,True,True,There are four ticks.,1,,,1,,There are four squares.,,5144,undefined,exh-subclausal,1,"[7, 8, 6]",10.74395,1592,"[0, 0, 0]","[0, 1]"
"[3, 5, 6]",2,There is a tick.,"[1, 0]",response,0,,0,0,"[1, 7, 3]",0,"[0, 0, 0]",True,True,True,There is a club.,0,,,1,,There is a spade.,,7183,undefined,exh-subclausal,0,"[2, 3, 7]",10.74395,2119,"[0, 0, 0]","[1, 0]"
"[9, 6, 3]",1,There are four stars.,"[0, 1]",filler,1,,1,2,"[9, 2, 3]",0,"[0, 0, 0]",True,True,True,There are four but no more than four triangles.,1,,,1,,There are four but no more than four triangles.,,5800,undefined,exh-subclausal,1,"[6, 9, 1]",10.74395,1415,"[0, 0, 0]","[0, 1]"
"[3, 1, 4]",0,Some of the symbols are circles.,"[0, 1]",filler,1,,1,1,"[6, 9, 7]",0,"[0, 0, 0]",True,True,True,Some of the symbols are stars.,1,,,1,,Some of the symbols are spades.,,9169,undefined,exh-subclausal,1,"[7, 2, 8]",10.74395,2360,"[0, 0, 0]","[0, 1]"
"[5, 7, 4]",1,There are four ticks.,"[1, 0]",filler,1,,1,0,"[5, 0, 1]",0,"[0, 0, 0]",True,True,True,There are four squares.,0,,,1,,There are four squares.,,3920,undefined,exh-subclausal,0,"[2, 0, 7]",10.74395,1200,"[0, 0, 0]","[0, 1]"
"[7, 2, 5]",0,Some of the symbols are hearts.,"[1, 0]",response,0,,0,3,"[5, 3, 2]",0,"[1, 0, 0]",True,False,False,3 + 2 = ?,1,,,1,,2 + 5 = ?,,5848,undefined,exh-subclausal,0,"[4, 9, 1]",10.74395,2447,"[0, 0, 0]","[1, 0]"
"[8, 1, 7]",0,Some of the symbols are spades.,"[0, 1]",filler,1,,0,3,"[7, 1, 6]",0,"[5, 0, 0]",False,False,False,1 + 6 = ?,0,,,1,,1 + 7 = ?,,4271,undefined,exh-subclausal,1,"[3, 5, 0]",10.74395,1631,"[1, 0, 0]","[1, 0]"
"[7, 5, 2]",1,There are four spades.,"[1, 0]",response,1,,0,3,"[13, 7, 6]",0,"[9, 0, 0]",False,True,False,7 + 6 = ?,0,,,1,,5 + 2 = ?,,6576,undefined,exh-subclausal,0,"[3, 6, 1]",10.74395,2494,"[1, 0, 0]","[1, 0]"
"[4, 6, 3]",2,There is a note.,"[1, 0]",filler,1,,1,2,"[2, 8, 1]",0,"[0, 0, 0]",True,True,True,There is a tick but nothing else.,0,,,1,,There is a heart but nothing else.,,4217,undefined,exh-subclausal,0,"[8, 1, 2]",10.74395,1751,"[0, 0, 0]","[0, 1]"
"[1, 0, 5]",2,There is a diamond.,"[0, 1]",response,0,,0,2,"[8, 9, 6]",0,"[0, 0, 0]",True,True,True,There is a note but nothing else.,1,,,1,,There is a club but nothing else.,,4128,undefined,exh-subclausal,1,"[0, 5, 9]",10.74395,1615,"[0, 0, 0]","[1, 0]"
"[6, 4, 2]",1,There are four notes.,"[0, 1]",response,0,,0,0,"[7, 3, 9]",0,"[0, 0, 0]",True,True,True,There are four circles.,1,,,1,,There are four stars.,,4511,undefined,exh-subclausal,1,"[8, 0, 7]",10.74395,2070,"[0, 0, 0]","[1, 0]"
"[6, 1, 5]",0,Some of the symbols are stars.,"[0, 1]",filler,1,,0,3,"[13, 7, 6]",0,"[7, 0, 0]",False,False,False,7 + 6 = ?,0,,,1,,1 + 5 = ?,,5871,undefined,exh-subclausal,1,"[6, 8, 0]",10.74395,1831,"[9, 0, 0]","[1, 0]"
"[6, 9, 4]",2,There is a heart.,"[0, 1]",response,1,,1,2,"[4, 8, 5]",0,"[0, 0, 0]",True,True,True,There is a heart but nothing else.,1,,,1,,There is a star but nothing else.,,3920,undefined,exh-subclausal,1,"[4, 2, 3]",10.74395,1375,"[0, 0, 0]","[0, 1]"
"[2, 7, 1]",1,There are four stars.,"[1, 0]",filler,1,,1,0,"[4, 6, 9]",0,"[0, 0, 0]",True,True,True,There are four hearts.,0,,,1,,There are four ticks.,,11480,undefined,exh-subclausal,0,"[6, 8, 9]",10.74395,2376,"[0, 0, 0]","[0, 1]"
"[12, 5, 7]",0,Some of the symbols are ticks.,"[1, 0]",response,1,,1,3,"[4, 4, 0]",0,"[0, 0, 0]",True,True,True,4 + 0 = ?,0,,,1,,5 + 7 = ?,,6072,undefined,exh-subclausal,0,"[2, 0, 1]",10.74395,2015,"[9, 0, 0]","[0, 1]"
"[6, 8, 3]",2,There is a club.,"[1, 0]",response,0,,0,1,"[5, 2, 8]",0,"[0, 0, 0]",True,True,True,There is a square.,0,,,1,,There is a star.,,4856,undefined,exh-subclausal,0,"[1, 0, 5]",10.74395,1647,"[0, 0, 0]","[1, 0]"
"[9, 3, 2]",2,There is a circle.,"[1, 0]",filler,0,,0,1,"[5, 2, 8]",0,"[0, 0, 0]",True,True,True,There is a square.,0,,,1,,There is a triangle.,,4376,undefined,exh-subclausal,0,"[7, 5, 6]",10.74395,1888,"[0, 0, 0]","[1, 0]"
"[4, 0, 8]",1,There are four hearts.,"[0, 1]",filler,0,,0,2,"[1, 5, 2]",0,"[0, 0, 0]",True,True,True,There are four but no more than four clubs.,1,,,1,,There are four but no more than four hearts.,,5504,undefined,exh-subclausal,1,"[4, 5, 2]",10.74395,1120,"[0, 0, 0]","[1, 0]"
"[1, 4, 0]",2,There is a circle.,"[1, 0]",filler,0,,0,0,"[5, 3, 9]",0,"[0, 0, 0]",True,True,True,There is a square.,0,,,1,,There is a club.,,5752,undefined,exh-subclausal,0,"[7, 1, 2]",10.74395,1087,"[0, 0, 0]","[1, 0]"
"[8, 6, 4]",1,There are four spades.,"[1, 0]",filler,1,,1,1,"[8, 7, 1]",0,"[0, 0, 0]",True,True,True,There are four notes.,0,,,1,,There are four notes.,,4368,undefined,exh-subclausal,0,"[3, 6, 0]",10.74395,1248,"[0, 0, 0]","[0, 1]"
"[9, 0, 2]",0,Some of the symbols are spades.,"[0, 1]",response,1,,1,1,"[9, 7, 6]",0,"[0, 0, 0]",True,True,True,Some of the symbols are triangles.,1,,,1,,Some of the symbols are triangles.,,6576,undefined,exh-subclausal,1,"[3, 6, 4]",10.74395,2056,"[0, 0, 0]","[0, 1]"
"[1, 5, 3]",1,There are four stars.,"[0, 1]",response,1,,1,2,"[2, 5, 1]",0,"[0, 0, 0]",True,True,True,There are four but no more than four ticks.,1,,,1,,There are four but no more than four clubs.,,4424,undefined,exh-subclausal,1,"[6, 8, 5]",10.74395,1624,"[0, 0, 0]","[0, 1]"
"[7, 2, 1]",0,Some of the symbols are clubs.,"[0, 1]",filler,0,,0,1,"[4, 7, 2]",0,"[0, 0, 0]",True,True,True,Some of the symbols are hearts.,1,,,1,,Some of the symbols are circles.,,5776,undefined,exh-subclausal,1,"[1, 4, 5]",10.74395,1744,"[0, 0, 0]","[1, 0]"
"[6, 5, 3]",0,Some of the symbols are clubs.,"[0, 1]",filler,0,,0,1,"[2, 1, 9]",0,"[0, 0, 0]",True,True,True,Some of the symbols are ticks.,1,,,1,,Some of the symbols are stars.,,5312,undefined,exh-subclausal,1,"[1, 5, 7]",10.74395,1479,"[0, 0, 0]","[1, 0]"
"[3, 1, 2]",2,There is a club.,"[0, 1]",filler,0,,0,3,"[16, 7, 9]",0,"[7, 0, 0]",True,True,True,7 + 9 = ?,1,,,1,,1 + 2 = ?,,6400,undefined,exh-subclausal,1,"[1, 3, 9]",10.74395,3216,"[1, 0, 0]","[1, 0]"
"[0, 8, 1]",0,Some of the symbols are clubs.,"[1, 0]",response,0,,0,2,"[5, 3, 6]",0,"[0, 0, 0]",True,True,True,Some but not all of the symbols are squares.,0,,,1,,Some but not all of the symbols are diamonds.,,11832,undefined,exh-subclausal,0,"[1, 0, 5]",10.74395,1944,"[0, 0, 0]","[1, 0]"
"[8, 9, 7]",1,There are four spades.,"[1, 0]",response,1,,1,1,"[7, 9, 3]",0,"[0, 0, 0]",True,True,True,There are four circles.,0,,,1,,There are four notes.,,3584,undefined,exh-subclausal,0,"[3, 1, 6]",10.74395,1519,"[0, 0, 0]","[0, 1]"
"[4, 8, 3]",0,Some of the symbols are squares.,"[1, 0]",response,1,,1,1,"[7, 9, 4]",0,"[0, 0, 0]",True,True,True,Some of the symbols are circles.,0,,,1,,Some of the symbols are hearts.,,6016,undefined,exh-subclausal,0,"[5, 0, 6]",10.74395,1495,"[0, 0, 0]","[0, 1]"
"[5, 3, 4]",1,There are four ticks.,"[0, 1]",filler,0,,0,1,"[4, 2, 1]",0,"[0, 0, 0]",True,True,True,There are four hearts.,1,,,1,,There are four squares.,,3272,undefined,exh-subclausal,1,"[2, 3, 8]",10.74395,1040,"[0, 0, 0]","[1, 0]"
"[6, 1, 5]",2,There is a spade.,"[1, 0]",response,0,,0,3,"[5, 1, 4]",0,"[4, 0, 0]",True,False,False,1 + 4 = ?,1,,,1,,1 + 5 = ?,,4056,undefined,exh-subclausal,0,"[3, 0, 9]",10.74395,1392,"[7, 0, 0]","[1, 0]"
"[1, 4, 0]",2,There is a diamond.,"[1, 0]",response,0,,0,0,"[4, 3, 1]",0,"[0, 0, 0]",True,True,True,There is a heart.,0,,,1,,There is a club.,,7296,undefined,exh-subclausal,0,"[0, 3, 9]",10.74395,1520,"[0, 0, 0]","[1, 0]"
"[0, 5, 4]",2,There is a triangle.,"[1, 0]",filler,1,,1,1,"[1, 7, 9]",0,"[0, 0, 0]",True,True,True,There is a club.,0,,,1,,There is a diamond.,,5824,undefined,exh-subclausal,0,"[9, 6, 2]",10.74395,1488,"[0, 0, 0]","[0, 1]"
"[8, 6, 7]",1,There are four spades.,"[0, 1]",response,1,,1,2,"[9, 2, 5]",0,"[0, 0, 0]",True,True,True,There are four but no more than four triangles.,1,,,1,,There are four but no more than four notes.,,5064,undefined,exh-subclausal,1,"[3, 1, 5]",10.74395,1544,"[0, 0, 0]","[0, 1]"
"[2, 9, 4]",1,There are four triangles.,"[1, 0]",response,0,,0,0,"[6, 0, 3]",0,"[0, 0, 0]",True,True,True,There are four stars.,0,,,1,,There are four ticks.,,4367,undefined,exh-subclausal,0,"[9, 4, 6]",10.74395,1631,"[0, 0, 0]","[1, 0]"
"[5, 1, 7]",1,There are four notes.,"[1, 0]",filler,0,,0,2,"[8, 9, 5]",0,"[0, 0, 0]",True,True,True,There are four but no more than four notes.,0,,,1,,There are four but no more than four squares.,,5312,undefined,exh-subclausal,0,"[8, 9, 0]",10.74395,1438,"[0, 0, 0]","[1, 0]"
"[4, 0, 4]",1,There are four triangles.,"[0, 1]",filler,0,,1,3,"[10, 4, 6]",0,"[3, 0, 0]",False,True,False,4 + 6 = ?,1,,,1,,0 + 4 = ?,,5353,undefined,exh-subclausal,1,"[9, 2, 0]",10.74395,1152,"[1, 0, 0]","[0, 1]"
"[8, 9, 3]",2,There is a triangle.,"[0, 1]",filler,1,,1,2,"[8, 2, 4]",0,"[0, 0, 0]",True,True,True,There is a note but nothing else.,1,,,1,,There is a note but nothing else.,,4248,undefined,exh-subclausal,1,"[9, 0, 7]",10.74395,1304,"[0, 0, 0]","[0, 1]"
"[3, 0, 7]",0,Some of the symbols are diamonds.,"[1, 0]",filler,1,,1,2,"[7, 1, 9]",0,"[0, 0, 0]",True,True,True,Some but not all of the symbols are circles.,0,,,1,,Some but not all of the symbols are spades.,,10224,undefined,exh-subclausal,0,"[0, 7, 2]",10.74395,1383,"[0, 0, 0]","[0, 1]"
"[2, 6, 1]",2,There is a tick.,"[1, 0]",filler,1,,1,2,"[3, 7, 9]",0,"[0, 0, 0]",True,True,True,There is a spade but nothing else.,0,,,1,,There is a tick but nothing else.,,4391,undefined,exh-subclausal,0,"[2, 1, 8]",10.74395,1375,"[0, 0, 0]","[0, 1]"
"[9, 2, 5]",0,Some of the symbols are diamonds.,"[0, 1]",filler,1,,1,1,"[1, 8, 9]",0,"[0, 0, 0]",True,True,True,Some of the symbols are clubs.,1,,,1,,Some of the symbols are triangles.,,5297,undefined,exh-subclausal,1,"[0, 2, 4]",10.74395,1415,"[0, 0, 0]","[0, 1]"
,,,,,,bot_check,,,,1,,,,,,,1,"[0, 'Sarah']",,Sarah,,,,undefined,,,,9.175633333333334,,,
"[4, 7, 1]",0,Some of the symbols are ticks.,"[1, 0]",response,1,,1,0,"[2, 7, 0]",1,"[0, 0, 0]",True,True,True,Some of the symbols are ticks.,0,,,1,,Some of the symbols are hearts.,,7908,undefined,exh-subclausal,0,"[2, 4, 6]",9.175633333333334,2464,"[0, 0, 0]","[0, 1]"
"[8, 1, 3]",0,Some of the symbols are ticks.,"[0, 1]",filler,0,,0,1,"[5, 3, 9]",1,"[0, 0, 0]",True,True,True,Some of the symbols are squares.,1,,,1,,Some of the symbols are notes.,,5995,undefined,exh-subclausal,1,"[2, 3, 8]",9.175633333333334,2114,"[0, 0, 0]","[1, 0]"
"[2, 4, 8]",1,There are four triangles.,"[1, 0]",response,1,,1,1,"[5, 2, 4]",1,"[0, 0, 0]",True,True,True,There are four squares.,0,,,1,,There are four ticks.,,4162,undefined,exh-subclausal,0,"[9, 5, 0]",9.175633333333334,1452,"[0, 0, 0]","[0, 1]"
"[16, 7, 9]",0,Some of the symbols are notes.,"[0, 1]",filler,1,,0,3,"[4, 0, 4]",1,"[1, 0, 0]",False,False,False,0 + 4 = ?,0,,,1,,7 + 9 = ?,,6109,undefined,exh-subclausal,1,"[8, 1, 7]",9.175633333333334,1699,"[0, 0, 0]","[1, 0]"
"[8, 7, 1]",1,There are four triangles.,"[0, 1]",filler,0,,0,3,"[5, 4, 1]",1,"[9, 0, 0]",True,True,True,4 + 1 = ?,1,,,1,,7 + 1 = ?,,3521,undefined,exh-subclausal,1,"[9, 5, 0]",9.175633333333334,1192,"[2, 0, 0]","[1, 0]"
"[7, 0, 7]",2,There is a club.,"[1, 0]",response,0,,0,3,"[5, 4, 1]",1,"[0, 0, 0]",True,False,False,4 + 1 = ?,1,,,0,,0 + 7 = ?,,3824,undefined,exh-subclausal,0,"[1, 7, 3]",9.175633333333334,1393,"[4, 0, 0]","[1, 0]"
"[8, 3, 5]",1,There are four squares.,"[1, 0]",response,0,,0,3,"[14, 9, 5]",1,"[1, 0, 0]",True,False,False,9 + 5 = ?,1,,,1,,3 + 5 = ?,,4140,undefined,exh-subclausal,0,"[5, 1, 6]",9.175633333333334,1101,"[2, 0, 0]","[1, 0]"
"[3, 9, 6]",2,There is a circle.,"[0, 1]",filler,1,,1,1,"[7, 3, 9]",1,"[0, 0, 0]",True,True,True,There is a circle.,1,,,1,,There is a spade.,,6614,undefined,exh-subclausal,1,"[7, 8, 3]",9.175633333333334,2159,"[0, 0, 0]","[0, 1]"
"[7, 7, 0]",0,Some of the symbols are squares.,"[1, 0]",filler,1,,1,3,"[10, 2, 8]",1,"[8, 0, 0]",True,True,True,2 + 8 = ?,0,,,1,,7 + 0 = ?,,3656,undefined,exh-subclausal,0,"[5, 7, 3]",9.175633333333334,1485,"[5, 0, 0]","[0, 1]"
"[4, 0, 7]",2,There is a spade.,"[0, 1]",response,1,,1,2,"[9, 5, 6]",1,"[0, 0, 0]",True,True,True,There is a triangle but nothing else.,1,,,1,,There is a heart but nothing else.,,5164,undefined,exh-subclausal,1,"[3, 4, 1]",9.175633333333334,1688,"[0, 0, 0]","[0, 1]"
"[7, 1, 5]",1,There are four hearts.,"[0, 1]",response,1,,1,1,"[8, 2, 0]",1,"[0, 0, 0]",True,True,True,There are four notes.,1,,,1,,There are four circles.,,5443,undefined,exh-subclausal,1,"[4, 6, 2]",9.175633333333334,1439,"[0, 0, 0]","[0, 1]"
"[1, 7, 3]",2,There is a circle.,"[1, 0]",response,0,,1,1,"[2, 6, 0]",1,"[0, 0, 0]",False,False,False,There is a tick.,1,,,0,,There is a club.,,5805,undefined,exh-subclausal,0,"[7, 2, 1]",9.175633333333334,1281,"[0, 0, 0]","[0, 1]"
"[3, 5, 0]",2,There is a heart.,"[1, 0]",filler,0,,0,2,"[5, 1, 7]",1,"[0, 0, 0]",True,True,True,There is a square but nothing else.,0,,,1,,There is a spade but nothing else.,,4005,undefined,exh-subclausal,0,"[4, 2, 8]",9.175633333333334,1372,"[0, 0, 0]","[1, 0]"
"[2, 7, 5]",2,There is a square.,"[0, 1]",filler,1,,0,1,"[1, 6, 2]",1,"[0, 0, 0]",False,False,False,There is a club.,0,,,1,,There is a tick.,,4319,undefined,exh-subclausal,1,"[5, 6, 3]",9.175633333333334,1349,"[0, 0, 0]","[1, 0]"
"[8, 6, 7]",1,There are four squares.,"[0, 1]",response,1,,1,0,"[7, 6, 4]",1,"[0, 0, 0]",True,True,True,There are four circles.,1,,,0,,There are four notes.,,4736,undefined,exh-subclausal,1,"[5, 8, 9]",9.175633333333334,1000,"[0, 0, 0]","[0, 1]"
"[7, 4, 8]",1,There are four circles.,"[1, 0]",filler,1,,1,1,"[2, 3, 5]",1,"[0, 0, 0]",True,True,True,There are four ticks.,0,,,1,,There are four circles.,,5061,undefined,exh-subclausal,0,"[7, 5, 3]",9.175633333333334,2046,"[0, 0, 0]","[0, 1]"
"[9, 1, 4]",2,There is a star.,"[1, 0]",filler,0,,0,0,"[1, 0, 2]",1,"[0, 0, 0]",True,True,True,There is a club.,0,,,1,,There is a triangle.,,4859,undefined,exh-subclausal,0,"[6, 2, 1]",9.175633333333334,1451,"[0, 0, 0]","[1, 0]"
"[7, 6, 4]",1,There are four stars.,"[0, 1]",response,1,,1,2,"[3, 8, 2]",1,"[0, 0, 0]",True,True,True,There are four but no more than four spades.,1,,,1,,There are four but no more than four circles.,,5647,undefined,exh-subclausal,1,"[6, 7, 1]",9.175633333333334,2383,"[0, 0, 0]","[0, 1]"
"[2, 3, 9]",1,There are four ticks.,"[0, 1]",filler,0,,0,1,"[6, 1, 9]",1,"[0, 0, 0]",True,True,True,There are four stars.,1,,,1,,There are four ticks.,,3949,undefined,exh-subclausal,1,"[2, 0, 4]",9.175633333333334,1439,"[0, 0, 0]","[1, 0]"
"[12, 4, 8]",1,There are four squares.,"[0, 1]",response,0,,0,3,"[13, 6, 7]",1,"[1, 0, 0]",True,True,True,6 + 7 = ?,1,,,1,,4 + 8 = ?,,4421,undefined,exh-subclausal,1,"[5, 9, 4]",9.175633333333334,1642,"[2, 0, 0]","[1, 0]"
"[9, 2, 1]",2,There is a diamond.,"[0, 1]",filler,1,,1,2,"[7, 2, 0]",1,"[0, 0, 0]",True,True,True,There is a circle but nothing else.,1,,,1,,There is a triangle but nothing else.,,4275,undefined,exh-subclausal,1,"[0, 1, 6]",9.175633333333334,1710,"[0, 0, 0]","[0, 1]"
"[0, 1, 5]",1,There are four diamonds.,"[1, 0]",response,0,,0,0,"[3, 0, 7]",1,"[0, 0, 0]",True,True,True,There are four spades.,0,,,1,,There are four diamonds.,,3959,undefined,exh-subclausal,0,"[0, 1, 2]",9.175633333333334,1360,"[0, 0, 0]","[1, 0]"
"[5, 3, 8]",0,Some of the symbols are ticks.,"[1, 0]",response,1,,1,2,"[3, 0, 4]",1,"[0, 0, 0]",True,True,True,Some but not all of the symbols are spades.,0,,,1,,Some but not all of the symbols are squares.,,6648,undefined,exh-subclausal,0,"[2, 7, 1]",9.175633333333334,1833,"[0, 0, 0]","[0, 1]"
"[6, 3, 4]",0,Some of the symbols are triangles.,"[0, 1]",response,0,,0,2,"[3, 0, 1]",1,"[0, 0, 0]",True,True,True,Some but not all of the symbols are spades.,1,,,1,,Some but not all of the symbols are stars.,,6209,undefined,exh-subclausal,1,"[9, 2, 0]",9.175633333333334,1742,"[0, 0, 0]","[1, 0]"
"[10, 1, 9]",0,Some of the symbols are spades.,"[1, 0]",filler,1,,0,3,"[9, 0, 9]",1,"[8, 0, 0]",False,True,False,0 + 9 = ?,0,,,1,,1 + 9 = ?,,3611,undefined,exh-subclausal,0,"[3, 2, 8]",9.175633333333334,1483,"[5, 0, 0]","[1, 0]"
"[9, 0, 9]",1,There are four circles.,"[0, 1]",response,0,,0,3,"[5, 1, 4]",1,"[8, 0, 0]",True,True,True,1 + 4 = ?,1,,,0,,0 + 9 = ?,,3746,undefined,exh-subclausal,1,"[7, 3, 8]",9.175633333333334,1598,"[1, 0, 0]","[1, 0]"
"[9, 7, 2]",1,There are four clubs.,"[1, 0]",filler,0,,0,3,"[2, 0, 2]",1,"[0, 0, 0]",True,False,False,0 + 2 = ?,1,,,1,,7 + 2 = ?,,3475,undefined,exh-subclausal,0,"[1, 0, 7]",9.175633333333334,1224,"[5, 0, 0]","[1, 0]"
"[9, 6, 3]",1,There are four circles.,"[0, 1]",filler,1,,1,2,"[2, 1, 3]",1,"[0, 0, 0]",True,True,True,There are four but no more than four ticks.,1,,,1,,There are four but no more than four triangles.,,3893,undefined,exh-subclausal,1,"[7, 2, 9]",9.175633333333334,1270,"[0, 0, 0]","[0, 1]"
"[5, 5, 0]",2,There is a spade.,"[0, 1]",filler,0,,1,3,"[11, 6, 5]",1,"[3, 0, 0]",False,True,False,6 + 5 = ?,1,,,0,,5 + 0 = ?,,3543,undefined,exh-subclausal,1,"[3, 0, 1]",9.175633333333334,1517,"[7, 0, 0]","[0, 1]"
"[6, 9, 2]",0,Some of the symbols are hearts.,"[1, 0]",filler,1,,1,2,"[0, 8, 1]",1,"[0, 0, 0]",True,True,True,Some but not all of the symbols are diamonds.,0,,,1,,Some but not all of the symbols are stars.,,5591,undefined,exh-subclausal,0,"[4, 5, 8]",9.175633333333334,1461,"[0, 0, 0]","[0, 1]"
"[5, 4, 3]",0,Some of the symbols are notes.,"[1, 0]",filler,1,,1,2,"[1, 2, 6]",1,"[0, 0, 0]",True,True,True,Some but not all of the symbols are clubs.,0,,,1,,Some but not all of the symbols are squares.,,5198,undefined,exh-subclausal,0,"[8, 3, 2]",9.175633333333334,1868,"[0, 0, 0]","[0, 1]"
"[8, 9, 1]",1,There are four stars.,"[1, 0]",filler,0,,0,0,"[4, 7, 8]",1,"[0, 0, 0]",True,False,False,There are four hearts.,1,,,1,,There are four notes.,,5827,undefined,exh-subclausal,0,"[6, 0, 4]",9.175633333333334,2058,"[0, 0, 0]","[1, 0]"
"[2, 5, 0]",1,There are four stars.,"[1, 0]",response,0,,0,1,"[8, 1, 4]",1,"[0, 0, 0]",True,True,True,There are four notes.,0,,,0,,There are four ticks.,,5005,undefined,exh-subclausal,0,"[6, 1, 7]",9.175633333333334,1911,"[0, 0, 0]","[1, 0]"
"[6, 0, 5]",1,There are four stars.,"[0, 1]",response,0,,0,2,"[0, 1, 9]",1,"[0, 0, 0]",True,True,True,There are four but no more than four diamonds.,1,,,1,,There are four but no more than four stars.,,5952,undefined,exh-subclausal,1,"[6, 5, 4]",9.175633333333334,1654,"[0, 0, 0]","[1, 0]"
"[4, 0, 5]",2,There is a club.,"[0, 1]",response,0,,0,0,"[4, 1, 7]",1,"[0, 0, 0]",True,True,True,There is a heart.,1,,,0,,There is a heart.,,4095,undefined,exh-subclausal,1,"[1, 0, 4]",9.175633333333334,1238,"[0, 0, 0]","[1, 0]"
"[9, 4, 3]",1,There are four squares.,"[1, 0]",filler,0,,0,2,"[7, 8, 5]",1,"[0, 0, 0]",True,True,True,There are four but no more than four circles.,0,,,1,,There are four but no more than four triangles.,,4960,undefined,exh-subclausal,0,"[5, 7, 4]",9.175633333333334,1416,"[0, 0, 0]","[1, 0]"
"[9, 6, 3]",1,There are four diamonds.,"[1, 0]",filler,1,,1,3,"[4, 2, 2]",1,"[5, 0, 0]",True,True,True,2 + 2 = ?,0,,,1,,6 + 3 = ?,,3960,undefined,exh-subclausal,0,"[0, 5, 3]",9.175633333333334,1665,"[5, 0, 0]","[0, 1]"
"[6, 8, 4]",1,There are four notes.,"[1, 0]",filler,0,,0,1,"[6, 7, 8]",1,"[0, 0, 0]",True,True,True,There are four stars.,0,,,1,,There are four stars.,,5320,undefined,exh-subclausal,0,"[8, 5, 3]",9.175633333333334,1697,"[0, 0, 0]","[1, 0]"
"[3, 7, 8]",1,There are four stars.,"[0, 1]",response,1,,1,2,"[1, 0, 5]",1,"[0, 0, 0]",True,True,True,There are four but no more than four clubs.,1,,,1,,There are four but no more than four spades.,,4870,undefined,exh-subclausal,1,"[6, 5, 4]",9.175633333333334,2080,"[0, 0, 0]","[0, 1]"
"[3, 6, 4]",0,Some of the symbols are stars.,"[1, 0]",filler,1,,1,1,"[2, 5, 4]",1,"[0, 0, 0]",True,True,True,Some of the symbols are ticks.,0,,,1,,Some of the symbols are spades.,,5006,undefined,exh-subclausal,0,"[6, 5, 8]",9.175633333333334,1518,"[0, 0, 0]","[0, 1]"
"[8, 5, 3]",2,There is a club.,"[1, 0]",filler,0,,1,3,"[17, 9, 8]",1,"[8, 0, 0]",False,False,False,9 + 8 = ?,1,,,1,,5 + 3 = ?,,6874,undefined,exh-subclausal,0,"[1, 4, 0]",9.175633333333334,1799,"[7, 0, 0]","[0, 1]"
"[0, 6, 8]",2,There is a star.,"[1, 0]",filler,1,,0,1,"[1, 9, 7]",1,"[0, 0, 0]",False,False,False,There is a club.,1,,,1,,There is a diamond.,,9157,undefined,exh-subclausal,0,"[6, 8, 2]",9.175633333333334,1643,"[0, 0, 0]","[1, 0]"
"[3, 8, 5]",2,There is a heart.,"[1, 0]",response,0,,0,2,"[2, 3, 6]",1,"[0, 0, 0]",True,True,True,There is a tick but nothing else.,0,,,0,,There is a spade but nothing else.,,4184,undefined,exh-subclausal,0,"[4, 6, 2]",9.175633333333334,1382,"[0, 0, 0]","[1, 0]"
"[8, 7, 0]",1,There are four diamonds.,"[1, 0]",filler,1,,1,0,"[4, 0, 8]",1,"[0, 0, 0]",True,True,True,There are four hearts.,0,,,1,,There are four notes.,,4533,undefined,exh-subclausal,0,"[0, 8, 3]",9.175633333333334,1427,"[0, 0, 0]","[0, 1]"
"[7, 3, 4]",2,There is a triangle.,"[1, 0]",response,1,,1,3,"[7, 7, 0]",1,"[8, 0, 0]",True,True,True,7 + 0 = ?,0,,,0,,3 + 4 = ?,,3837,undefined,exh-subclausal,0,"[9, 2, 1]",9.175633333333334,1574,"[6, 0, 0]","[0, 1]"
"[2, 8, 7]",2,There is a tick.,"[1, 0]",filler,0,,0,0,"[4, 8, 2]",1,"[0, 0, 0]",True,True,True,There is a heart.,0,,,1,,There is a tick.,,4376,undefined,exh-subclausal,0,"[2, 1, 7]",9.175633333333334,1687,"[0, 0, 0]","[1, 0]"
"[5, 3, 7]",0,Some of the symbols are squares.,"[1, 0]",filler,0,,0,1,"[5, 8, 3]",1,"[0, 0, 0]",True,True,True,Some of the symbols are squares.,0,,,1,,Some of the symbols are squares.,,4871,undefined,exh-subclausal,0,"[5, 9, 3]",9.175633333333334,1777,"[0, 0, 0]","[1, 0]"
"[4, 8, 1]",1,There are four diamonds.,"[0, 1]",filler,1,,1,2,"[1, 4, 0]",1,"[0, 0, 0]",True,True,True,There are four but no more than four clubs.,1,,,1,,There are four but no more than four hearts.,,4410,undefined,exh-subclausal,1,"[0, 8, 7]",9.175633333333334,1270,"[0, 0, 0]","[0, 1]"
"[2, 9, 6]",0,Some of the symbols are notes.,"[0, 1]",filler,0,,0,0,"[0, 5, 7]",1,"[0, 0, 0]",True,True,True,Some of the symbols are diamonds.,1,,,1,,Some of the symbols are ticks.,,5050,undefined,exh-subclausal,1,"[8, 2, 0]",9.175633333333334,1832,"[0, 0, 0]","[1, 0]"
"[2, 5, 9]",2,There is a circle.,"[1, 0]",filler,1,,1,0,"[4, 0, 5]",1,"[0, 0, 0]",True,True,True,There is a heart.,0,,,1,,There is a tick.,,3927,undefined,exh-subclausal,0,"[7, 6, 3]",9.175633333333334,1373,"[0, 0, 0]","[0, 1]"
"[6, 9, 3]",1,There are four squares.,"[0, 1]",response,0,,0,0,"[4, 2, 8]",1,"[0, 0, 0]",True,True,True,There are four hearts.,1,,,0,,There are four stars.,,3734,undefined,exh-subclausal,1,"[5, 1, 7]",9.175633333333334,1101,"[0, 0, 0]","[1, 0]"
"[1, 6, 7]",1,There are four diamonds.,"[0, 1]",response,0,,0,2,"[4, 2, 0]",1,"[0, 0, 0]",True,True,True,There are four but no more than four hearts.,1,,,1,,There are four but no more than four clubs.,,5468,undefined,exh-subclausal,1,"[0, 6, 1]",9.175633333333334,1755,"[0, 0, 0]","[1, 0]"
"[5, 7, 8]",1,There are four clubs.,"[0, 1]",filler,1,,1,0,"[8, 3, 6]",1,"[0, 0, 0]",True,True,True,There are four notes.,1,,,1,,There are four squares.,,3700,undefined,exh-subclausal,1,"[1, 5, 7]",9.175633333333334,1348,"[0, 0, 0]","[0, 1]"
"[6, 2, 4]",0,Some of the symbols are notes.,"[1, 0]",filler,0,,0,0,"[3, 4, 8]",1,"[0, 0, 0]",True,True,True,Some of the symbols are spades.,0,,,1,,Some of the symbols are stars.,,5591,undefined,exh-subclausal,0,"[8, 6, 5]",9.175633333333334,1405,"[0, 0, 0]","[1, 0]"
"[6, 4, 2]",0,Some of the symbols are circles.,"[0, 1]",response,1,,1,3,"[8, 1, 7]",1,"[2, 0, 0]",True,True,True,1 + 7 = ?,1,,,1,,4 + 2 = ?,,5591,undefined,exh-subclausal,1,"[7, 5, 0]",9.175633333333334,2373,"[7, 0, 0]","[0, 1]"
"[7, 5, 3]",2,There is a spade.,"[1, 0]",response,0,,1,1,"[6, 5, 3]",1,"[0, 0, 0]",False,False,False,There is a star.,1,,,0,,There is a circle.,,4003,undefined,exh-subclausal,0,"[3, 5, 6]",9.175633333333334,1190,"[0, 0, 0]","[0, 1]"
"[7, 9, 4]",1,There are four diamonds.,"[0, 1]",filler,1,,1,1,"[5, 1, 2]",1,"[0, 0, 0]",True,True,True,There are four squares.,1,,,1,,There are four circles.,,4152,undefined,exh-subclausal,1,"[0, 9, 3]",9.175633333333334,1653,"[0, 0, 0]","[0, 1]"
"[5, 1, 4]",2,There is a note.,"[1, 0]",response,1,,1,3,"[10, 9, 1]",1,"[8, 0, 0]",True,True,True,9 + 1 = ?,0,,,0,,1 + 4 = ?,,3656,undefined,exh-subclausal,0,"[8, 5, 2]",9.175633333333334,1383,"[9, 0, 0]","[0, 1]"
"[6, 1, 3]",1,There are four spades.,"[0, 1]",response,1,,1,1,"[0, 1, 5]",1,"[0, 0, 0]",True,True,True,There are four diamonds.,1,,,0,,There are four stars.,,3813,undefined,exh-subclausal,1,"[3, 0, 1]",9.175633333333334,1540,"[0, 0, 0]","[0, 1]"
"[3, 0, 7]",0,Some of the symbols are hearts.,"[0, 1]",response,1,,1,1,"[4, 0, 2]",1,"[0, 0, 0]",True,True,True,Some of the symbols are hearts.,1,,,1,,Some of the symbols are spades.,,6097,undefined,exh-subclausal,1,"[4, 9, 0]",9.175633333333334,1888,"[0, 0, 0]","[0, 1]"
"[8, 1, 7]",0,Some of the symbols are stars.,"[0, 1]",filler,0,,0,0,"[5, 9, 3]",1,"[0, 0, 0]",True,True,True,Some of the symbols are squares.,1,,,1,,Some of the symbols are notes.,,5625,undefined,exh-subclausal,1,"[6, 7, 3]",9.175633333333334,1709,"[0, 0, 0]","[1, 0]"
"[1, 4, 5]",2,There is a spade.,"[1, 0]",response,0,,1,1,"[3, 7, 5]",1,"[0, 0, 0]",False,False,False,There is a spade.,1,,,0,,There is a club.,,4915,undefined,exh-subclausal,0,"[3, 6, 7]",9.175633333333334,1449,"[0, 0, 0]","[0, 1]"
"[1, 3, 7]",1,There are four ticks.,"[0, 1]",filler,0,,0,0,"[1, 4, 9]",1,"[0, 0, 0]",True,True,True,There are four clubs.,1,,,1,,There are four clubs.,,4445,undefined,exh-subclausal,1,"[2, 4, 3]",9.175633333333334,1327,"[0, 0, 0]","[1, 0]"
"[7, 6, 5]",1,There are four hearts.,"[1, 0]",response,0,,0,0,"[7, 0, 9]",1,"[0, 0, 0]",True,True,True,There are four circles.,0,,,1,,There are four circles.,,5940,undefined,exh-subclausal,0,"[4, 7, 6]",9.175633333333334,3026,"[0, 0, 0]","[1, 0]"
"[9, 3, 6]",0,Some of the symbols are ticks.,"[0, 1]",response,1,,0,3,"[7, 4, 3]",1,"[6, 0, 0]",False,False,False,4 + 3 = ?,0,,,1,,3 + 6 = ?,,3858,undefined,exh-subclausal,1,"[2, 5, 9]",9.175633333333334,1417,"[8, 0, 0]","[1, 0]"
"[0, 7, 1]",0,Some of the symbols are hearts.,"[1, 0]",response,0,,0,2,"[3, 1, 8]",1,"[0, 0, 0]",True,True,True,Some but not all of the symbols are spades.,0,,,1,,Some but not all of the symbols are diamonds.,,6422,undefined,exh-subclausal,0,"[4, 7, 5]",9.175633333333334,1788,"[0, 0, 0]","[1, 0]"
"[4, 5, 0]",0,Some of the symbols are triangles.,"[0, 1]",filler,0,,0,2,"[8, 9, 3]",1,"[0, 0, 0]",True,True,True,Some but not all of the symbols are notes.,1,,,1,,Some but not all of the symbols are hearts.,,5355,undefined,exh-subclausal,1,"[9, 7, 8]",9.175633333333334,1652,"[0, 0, 0]","[1, 0]"
"[2, 6, 1]",0,Some of the symbols are triangles.,"[0, 1]",filler,1,,1,2,"[7, 6, 8]",1,"[0, 0, 0]",True,True,True,Some but not all of the symbols are circles.,1,,,1,,Some but not all of the symbols are ticks.,,4442,undefined,exh-subclausal,1,"[9, 6, 0]",9.175633333333334,1448,"[0, 0, 0]","[0, 1]"
"[1, 6, 4]",2,There is a note.,"[1, 0]",response,1,,1,0,"[3, 8, 9]",1,"[0, 0, 0]",True,True,True,There is a spade.,0,,,0,,There is a club.,,4253,undefined,exh-subclausal,0,"[8, 2, 3]",9.175633333333334,1305,"[0, 0, 0]","[0, 1]"
"[6, 4, 8]",2,There is a heart.,"[1, 0]",response,0,,0,0,"[6, 9, 7]",1,"[0, 0, 0]",True,True,True,There is a star.,0,,,0,,There is a star.,,3892,undefined,exh-subclausal,0,"[4, 2, 1]",9.175633333333334,1439,"[0, 0, 0]","[1, 0]"
"[8, 5, 1]",1,There are four squares.,"[0, 1]",filler,1,,1,2,"[5, 3, 8]",1,"[0, 0, 0]",True,True,True,There are four but no more than four squares.,1,,,1,,There are four but no more than four notes.,,4341,undefined,exh-subclausal,1,"[5, 7, 9]",9.175633333333334,1743,"[0, 0, 0]","[0, 1]"
"[5, 0, 5]",2,There is a square.,"[1, 0]",filler,1,,1,3,"[15, 9, 6]",1,"[1, 0, 0]",True,True,True,9 + 6 = ?,0,,,1,,0 + 5 = ?,,4005,undefined,exh-subclausal,0,"[5, 6, 1]",9.175633333333334,1461,"[9, 0, 0]","[0, 1]"
"[5, 4, 0]",0,Some of the symbols are diamonds.,"[1, 0]",response,1,,1,2,"[9, 8, 7]",1,"[0, 0, 0]",True,True,True,Some but not all of the symbols are triangles.,0,,,1,,Some but not all of the symbols are squares.,,4850,undefined,exh-subclausal,0,"[0, 7, 2]",9.175633333333334,1452,"[0, 0, 0]","[0, 1]"
"[9, 8, 7]",2,There is a square.,"[0, 1]",response,1,,0,1,"[2, 3, 6]",1,"[0, 0, 0]",False,False,False,There is a tick.,0,,,0,,There is a triangle.,,4531,undefined,exh-subclausal,1,"[5, 4, 2]",9.175633333333334,1124,"[0, 0, 0]","[1, 0]"
"[10, 7, 3]",1,There are four triangles.,"[1, 0]",response,0,,0,3,"[15, 9, 6]",1,"[9, 0, 0]",True,False,False,9 + 6 = ?,1,,,1,,7 + 3 = ?,,3566,undefined,exh-subclausal,0,"[9, 2, 1]",9.175633333333334,1204,"[8, 0, 0]","[1, 0]"
"[4, 0, 6]",2,There is a triangle.,"[0, 1]",filler,1,,1,2,"[8, 3, 2]",1,"[0, 0, 0]",True,True,True,There is a note but nothing else.,1,,,1,,There is a heart but nothing else.,,4365,undefined,exh-subclausal,1,"[9, 6, 8]",9.175633333333334,1674,"[0, 0, 0]","[0, 1]"
"[1, 4, 2]",2,There is a spade.,"[0, 1]",filler,1,,0,1,"[0, 4, 2]",1,"[0, 0, 0]",False,False,False,There is a diamond.,0,,,1,,There is a club.,,4263,undefined,exh-subclausal,1,"[3, 9, 6]",9.175633333333334,1586,"[0, 0, 0]","[1, 0]"
"[6, 8, 1]",2,There is a square.,"[0, 1]",filler,1,,1,0,"[2, 8, 6]",1,"[0, 0, 0]",True,True,True,There is a tick.,1,,,1,,There is a star.,,4522,undefined,exh-subclausal,1,"[5, 8, 6]",9.175633333333334,1350,"[0, 0, 0]","[0, 1]"
"[3, 5, 6]",2,There is a spade.,"[0, 1]",filler,0,,1,2,"[1, 2, 5]",1,"[0, 0, 0]",False,False,False,There is a club but nothing else.,0,,,1,,There is a spade but nothing else.,,7468,undefined,exh-subclausal,1,"[3, 6, 8]",9.175633333333334,1236,"[0, 0, 0]","[0, 1]"
"[9, 0, 9]",1,There are four ticks.,"[1, 0]",filler,1,,0,3,"[18, 9, 9]",1,"[5, 0, 0]",False,True,False,9 + 9 = ?,0,,,1,,0 + 9 = ?,,3971,undefined,exh-subclausal,0,"[2, 7, 5]",9.175633333333334,1180,"[2, 0, 0]","[1, 0]"
"[6, 3, 1]",0,Some of the symbols are circles.,"[1, 0]",response,0,,0,0,"[3, 4, 9]",1,"[0, 0, 0]",True,True,True,Some of the symbols are spades.,0,,,0,,Some of the symbols are stars.,,6267,undefined,exh-subclausal,0,"[7, 0, 9]",9.175633333333334,1371,"[0, 0, 0]","[1, 0]"
"[6, 3, 3]",2,There is a diamond.,"[1, 0]",response,0,,0,3,"[8, 7, 1]",1,"[1, 0, 0]",True,False,False,7 + 1 = ?,1,,,0,,3 + 3 = ?,,4206,undefined,exh-subclausal,0,"[0, 2, 4]",9.175633333333334,1584,"[1, 0, 0]","[1, 0]"
"[15, 6, 9]",0,Some of the symbols are clubs.,"[0, 1]",response,0,,1,3,"[15, 8, 7]",1,"[1, 0, 0]",False,True,False,8 + 7 = ?,1,,,1,,6 + 9 = ?,,5276,undefined,exh-subclausal,1,"[1, 6, 0]",9.175633333333334,1563,"[9, 0, 0]","[0, 1]"
"[9, 6, 3]",2,There is a heart.,"[0, 1]",response,1,,1,2,"[0, 4, 7]",1,"[0, 0, 0]",True,True,True,There is a diamond but nothing else.,1,,,0,,There is a triangle but nothing else.,,4343,undefined,exh-subclausal,1,"[4, 2, 3]",9.175633333333334,1294,"[0, 0, 0]","[0, 1]"
"[2, 4, 8]",2,There is a tick.,"[0, 1]",response,0,,0,2,"[3, 7, 2]",1,"[0, 0, 0]",True,True,True,There is a spade but nothing else.,1,,,0,,There is a tick but nothing else.,,4026,undefined,exh-subclausal,1,"[2, 8, 3]",9.175633333333334,1226,"[0, 0, 0]","[1, 0]"
"[7, 7, 0]",0,Some of the symbols are hearts.,"[0, 1]",filler,1,,0,3,"[9, 9, 0]",1,"[0, 0, 0]",False,False,False,9 + 0 = ?,0,,,1,,7 + 0 = ?,,5185,undefined,exh-subclausal,1,"[4, 3, 5]",9.175633333333334,1528,"[9, 0, 0]","[1, 0]"
"[7, 6, 1]",0,Some of the symbols are stars.,"[1, 0]",filler,1,,1,1,"[9, 2, 1]",1,"[0, 0, 0]",True,True,True,Some of the symbols are triangles.,0,,,1,,Some of the symbols are circles.,,4468,undefined,exh-subclausal,0,"[6, 1, 3]",9.175633333333334,1473,"[0, 0, 0]","[0, 1]"
"[0, 6, 1]",0,Some of the symbols are hearts.,"[0, 1]",response,0,,0,0,"[6, 3, 0]",1,"[0, 0, 0]",True,True,True,Some of the symbols are stars.,1,,,1,,Some of the symbols are diamonds.,,5792,undefined,exh-subclausal,1,"[4, 6, 1]",9.175633333333334,1991,"[0, 0, 0]","[1, 0]"
"[14, 8, 6]",2,There is a diamond.,"[0, 1]",filler,0,,0,3,"[8, 6, 2]",1,"[4, 0, 0]",True,True,True,6 + 2 = ?,1,,,1,,8 + 6 = ?,,4727,undefined,exh-subclausal,1,"[0, 9, 3]",9.175633333333334,2229,"[3, 0, 0]","[1, 0]"
"[9, 4, 5]",0,Some of the symbols are hearts.,"[1, 0]",response,0,,0,1,"[3, 8, 1]",1,"[0, 0, 0]",True,True,True,Some of the symbols are spades.,0,,,1,,Some of the symbols are triangles.,,4409,undefined,exh-subclausal,0,"[4, 2, 1]",9.175633333333334,1408,"[0, 0, 0]","[1, 0]"
"[8, 3, 6]",0,Some of the symbols are ticks.,"[0, 1]",response,1,,1,0,"[8, 1, 7]",1,"[0, 0, 0]",True,True,True,Some of the symbols are notes.,1,,,1,,Some of the symbols are notes.,,5421,undefined,exh-subclausal,1,"[2, 8, 7]",9.175633333333334,1844,"[0, 0, 0]","[0, 1]"
"[3, 4, 9]",2,There is a note.,"[1, 0]",response,1,,1,0,"[0, 2, 5]",1,"[0, 0, 0]",True,True,True,There is a diamond.,0,,,0,,There is a spade.,,5028,undefined,exh-subclausal,0,"[8, 4, 3]",9.175633333333334,1787,"[0, 0, 0]","[0, 1]"
"[3, 9, 0]",0,Some of the symbols are spades.,"[1, 0]",response,1,,1,1,"[1, 8, 7]",1,"[0, 0, 0]",True,True,True,Some of the symbols are clubs.,0,,,1,,Some of the symbols are spades.,,5051,undefined,exh-subclausal,0,"[3, 2, 5]",9.175633333333334,1552,"[0, 0, 0]","[0, 1]"
"[6, 4, 9]",0,Some of the symbols are ticks.,"[0, 1]",response,1,,1,1,"[8, 9, 6]",1,"[0, 0, 0]",True,True,True,Some of the symbols are notes.,1,,,1,,Some of the symbols are stars.,,6131,undefined,exh-subclausal,1,"[2, 4, 0]",9.175633333333334,2148,"[0, 0, 0]","[0, 1]"
"[10, 2, 8]",0,Some of the symbols are squares.,"[0, 1]",response,1,,0,3,"[8, 1, 7]",1,"[8, 0, 0]",False,False,False,1 + 7 = ?,0,,,1,,2 + 8 = ?,,5230,undefined,exh-subclausal,1,"[5, 1, 8]",9.175633333333334,3125,"[0, 0, 0]","[1, 0]"
"[9, 6, 4]",0,Some of the symbols are clubs.,"[1, 0]",filler,1,,1,0,"[6, 5, 3]",1,"[0, 0, 0]",True,True,True,Some of the symbols are stars.,0,,,1,,Some of the symbols are triangles.,,5062,undefined,exh-subclausal,0,"[1, 2, 3]",9.175633333333334,1528,"[0, 0, 0]","[0, 1]"
,,,,,,bot_check,,,,2,,,,,,,1,"[0, 'Patricia']",,Patricia,,,,undefined,,,,10.811666666666667,,,
"[1, 6, 9]",1,There are four diamonds.,"[0, 1]",response,0,,0,2,"[5, 3, 1]",2,"[0, 0, 0]",True,True,True,There are four but no more than four squares.,1,,,1,,There are four but no more than four clubs.,,10048,undefined,exh-subclausal,1,"[0, 3, 8]",10.811666666666667,2416,"[0, 0, 0]","[1, 0]"
"[8, 6, 2]",1,There are four spades.,"[0, 1]",response,0,,1,3,"[2, 0, 2]",2,"[7, 0, 0]",False,True,False,0 + 2 = ?,1,,,1,,6 + 2 = ?,,8928,undefined,exh-subclausal,1,"[3, 6, 0]",10.811666666666667,5136,"[3, 0, 0]","[0, 1]"
"[2, 8, 3]",1,There are four triangles.,"[0, 1]",filler,0,,0,0,"[2, 7, 9]",2,"[0, 0, 0]",True,True,True,There are four ticks.,1,,,1,,There are four ticks.,,7392,undefined,exh-subclausal,1,"[9, 6, 0]",10.811666666666667,2120,"[0, 0, 0]","[1, 0]"
"[14, 9, 5]",2,There is a star.,"[1, 0]",response,1,,1,3,"[7, 6, 1]",2,"[4, 0, 0]",True,True,True,6 + 1 = ?,0,,,0,,9 + 5 = ?,,6968,undefined,exh-subclausal,0,"[6, 1, 2]",10.811666666666667,3208,"[0, 0, 0]","[0, 1]"
"[5, 7, 2]",1,There are four diamonds.,"[0, 1]",filler,0,,0,2,"[7, 8, 5]",2,"[0, 0, 0]",True,True,True,There are four but no more than four circles.,1,,,1,,There are four but no more than four squares.,,6823,undefined,exh-subclausal,1,"[0, 9, 4]",10.811666666666667,2135,"[0, 0, 0]","[1, 0]"
"[2, 0, 8]",1,There are four clubs.,"[0, 1]",response,1,,1,0,"[0, 1, 2]",2,"[0, 0, 0]",True,True,True,There are four diamonds.,1,,,1,,There are four ticks.,,6416,undefined,exh-subclausal,1,"[1, 6, 2]",10.811666666666667,2704,"[0, 0, 0]","[0, 1]"
"[9, 0, 1]",2,There is a heart.,"[1, 0]",filler,0,,0,2,"[8, 1, 6]",2,"[0, 0, 0]",True,True,True,There is a note but nothing else.,0,,,1,,There is a triangle but nothing else.,,7632,undefined,exh-subclausal,0,"[4, 3, 9]",10.811666666666667,2736,"[0, 0, 0]","[1, 0]"
"[4, 6, 1]",0,Some of the symbols are clubs.,"[1, 0]",filler,0,,0,2,"[4, 8, 1]",2,"[0, 0, 0]",True,True,True,Some but not all of the symbols are hearts.,0,,,1,,Some but not all of the symbols are hearts.,,11176,undefined,exh-subclausal,0,"[1, 8, 6]",10.811666666666667,2408,"[0, 0, 0]","[1, 0]"
"[0, 9, 2]",1,There are four notes.,"[1, 0]",response,1,,1,2,"[8, 3, 1]",2,"[0, 0, 0]",True,True,True,There are four but no more than four notes.,0,,,1,,There are four but no more than four diamonds.,,8055,undefined,exh-subclausal,0,"[8, 5, 3]",10.811666666666667,2311,"[0, 0, 0]","[0, 1]"
"[16, 9, 7]",1,There are four ticks.,"[1, 0]",response,1,,0,3,"[12, 8, 4]",2,"[8, 0, 0]",False,True,False,8 + 4 = ?,0,,,1,,9 + 7 = ?,,5400,undefined,exh-subclausal,0,"[2, 4, 6]",10.811666666666667,2008,"[8, 0, 0]","[1, 0]"
"[4, 2, 2]",1,There are four stars.,"[1, 0]",response,0,,1,3,"[16, 9, 7]",2,"[7, 0, 0]",False,False,False,9 + 7 = ?,1,,,1,,2 + 2 = ?,,4672,undefined,exh-subclausal,0,"[6, 4, 0]",10.811666666666667,1672,"[0, 0, 0]","[0, 1]"
"[7, 2, 9]",0,Some of the symbols are circles.,"[1, 0]",filler,1,,1,0,"[9, 6, 0]",2,"[0, 0, 0]",True,True,True,Some of the symbols are triangles.,0,,,1,,Some of the symbols are circles.,,7103,undefined,exh-subclausal,0,"[7, 6, 9]",10.811666666666667,1719,"[0, 0, 0]","[0, 1]"
"[3, 7, 4]",1,There are four diamonds.,"[0, 1]",response,0,,0,1,"[7, 5, 2]",2,"[0, 0, 0]",True,True,True,There are four circles.,1,,,1,,There are four spades.,,5704,undefined,exh-subclausal,1,"[0, 7, 1]",10.811666666666667,1712,"[0, 0, 0]","[1, 0]"
"[5, 6, 1]",2,There is a circle.,"[1, 0]",filler,1,,1,1,"[0, 6, 9]",2,"[0, 0, 0]",True,True,True,There is a diamond.,0,,,1,,There is a square.,,5344,undefined,exh-subclausal,0,"[7, 0, 8]",10.811666666666667,1631,"[0, 0, 0]","[0, 1]"
"[5, 0, 5]",1,There are four squares.,"[1, 0]",filler,1,,1,3,"[2, 1, 1]",2,"[5, 0, 0]",True,True,True,1 + 1 = ?,0,,,1,,0 + 5 = ?,,4912,undefined,exh-subclausal,0,"[5, 7, 6]",10.811666666666667,1664,"[3, 0, 0]","[0, 1]"
"[1, 3, 5]",1,There are four stars.,"[0, 1]",response,1,,1,0,"[1, 0, 5]",2,"[0, 0, 0]",True,True,True,There are four clubs.,1,,,1,,There are four clubs.,,8072,undefined,exh-subclausal,1,"[6, 4, 8]",10.811666666666667,2568,"[0, 0, 0]","[0, 1]"
"[1, 8, 3]",0,Some of the symbols are triangles.,"[0, 1]",response,0,,0,0,"[9, 0, 5]",2,"[0, 0, 0]",True,True,True,Some of the symbols are triangles.,1,,,0,,Some of the symbols are clubs.,,6048,undefined,exh-subclausal,1,"[9, 2, 0]",10.811666666666667,2168,"[0, 0, 0]","[1, 0]"
"[6, 5, 3]",2,There is a spade.,"[0, 1]",response,0,,0,2,"[5, 0, 8]",2,"[0, 0, 0]",True,True,True,There is a square but nothing else.,1,,,1,,There is a star but nothing else.,,9936,undefined,exh-subclausal,1,"[3, 4, 8]",10.811666666666667,3520,"[0, 0, 0]","[1, 0]"
"[0, 1, 4]",1,There are four triangles.,"[1, 0]",filler,0,,0,2,"[6, 2, 8]",2,"[0, 0, 0]",True,True,True,There are four but no more than four stars.,0,,,1,,There are four but no more than four diamonds.,,5808,undefined,exh-subclausal,0,"[9, 4, 6]",10.811666666666667,1696,"[0, 0, 0]","[1, 0]"
"[10, 1, 9]",2,There is a spade.,"[1, 0]",filler,0,,0,3,"[16, 8, 8]",2,"[2, 0, 0]",True,False,False,8 + 8 = ?,1,,,1,,1 + 9 = ?,,4848,undefined,exh-subclausal,0,"[3, 1, 8]",10.811666666666667,1920,"[5, 0, 0]","[1, 0]"
"[6, 4, 5]",0,Some of the symbols are squares.,"[0, 1]",response,1,,1,1,"[5, 2, 0]",2,"[0, 0, 0]",True,True,True,Some of the symbols are squares.,1,,,0,,Some of the symbols are stars.,,10192,undefined,exh-subclausal,1,"[5, 8, 6]",10.811666666666667,4240,"[0, 0, 0]","[0, 1]"
"[9, 1, 2]",1,There are four circles.,"[1, 0]",filler,1,,1,1,"[0, 5, 7]",2,"[0, 0, 0]",True,True,True,There are four diamonds.,0,,,1,,There are four triangles.,,6144,undefined,exh-subclausal,0,"[7, 8, 1]",10.811666666666667,1719,"[0, 0, 0]","[0, 1]"
"[2, 1, 1]",1,There are four clubs.,"[1, 0]",filler,0,,0,3,"[4, 1, 3]",2,"[3, 0, 0]",True,False,False,1 + 3 = ?,1,,,1,,1 + 1 = ?,,5040,undefined,exh-subclausal,0,"[1, 6, 4]",10.811666666666667,1672,"[3, 0, 0]","[1, 0]"
"[6, 0, 3]",1,There are four circles.,"[0, 1]",filler,0,,0,2,"[5, 8, 4]",2,"[0, 0, 0]",True,True,True,There are four but no more than four squares.,1,,,1,,There are four but no more than four stars.,,5784,undefined,exh-subclausal,1,"[7, 9, 0]",10.811666666666667,1720,"[0, 0, 0]","[1, 0]"
"[3, 4, 8]",1,There are four stars.,"[1, 0]",response,0,,0,1,"[6, 3, 4]",2,"[0, 0, 0]",True,True,True,There are four stars.,0,,,1,,There are four spades.,,4856,undefined,exh-subclausal,0,"[6, 4, 3]",10.811666666666667,1823,"[0, 0, 0]","[1, 0]"
"[3, 0, 7]",0,Some of the symbols are hearts.,"[0, 1]",filler,0,,0,1,"[9, 2, 0]",2,"[0, 0, 0]",True,True,True,Some of the symbols are triangles.,1,,,1,,Some of the symbols are spades.,,7152,undefined,exh-subclausal,1,"[4, 2, 9]",10.811666666666667,1768,"[0, 0, 0]","[1, 0]"
"[2, 5, 8]",0,Some of the symbols are spades.,"[0, 1]",filler,0,,0,0,"[5, 2, 3]",2,"[0, 0, 0]",True,True,True,Some of the symbols are squares.,1,,,1,,Some of the symbols are ticks.,,5552,undefined,exh-subclausal,1,"[3, 8, 5]",10.811666666666667,2168,"[0, 0, 0]","[1, 0]"
"[9, 4, 5]",2,There is a square.,"[1, 0]",response,0,,0,3,"[6, 5, 1]",2,"[2, 0, 0]",True,False,False,5 + 1 = ?,1,,,0,,4 + 5 = ?,,6984,undefined,exh-subclausal,0,"[5, 6, 7]",10.811666666666667,3815,"[0, 0, 0]","[1, 0]"
"[8, 7, 3]",0,Some of the symbols are hearts.,"[1, 0]",filler,0,,0,0,"[7, 9, 8]",2,"[0, 0, 0]",True,True,True,Some of the symbols are circles.,0,,,1,,Some of the symbols are notes.,,6407,undefined,exh-subclausal,0,"[4, 7, 6]",10.811666666666667,1775,"[0, 0, 0]","[1, 0]"
"[0, 7, 3]",2,There is a diamond.,"[0, 1]",response,0,,0,0,"[4, 0, 7]",2,"[0, 0, 0]",True,True,True,There is a heart.,1,,,0,,There is a diamond.,,7728,undefined,exh-subclausal,1,"[0, 8, 6]",10.811666666666667,3094,"[0, 0, 0]","[1, 0]"
"[1, 6, 8]",2,There is a club.,"[0, 1]",response,0,,0,1,"[5, 2, 1]",2,"[0, 0, 0]",True,True,True,There is a square.,1,,,1,,There is a club.,,7832,undefined,exh-subclausal,1,"[1, 2, 3]",10.811666666666667,2479,"[0, 0, 0]","[1, 0]"
"[6, 3, 8]",0,Some of the symbols are spades.,"[0, 1]",filler,1,,1,2,"[1, 7, 4]",2,"[0, 0, 0]",True,True,True,Some but not all of the symbols are clubs.,1,,,1,,Some but not all of the symbols are stars.,,11296,undefined,exh-subclausal,1,"[3, 1, 5]",10.811666666666667,4015,"[0, 0, 0]","[0, 1]"
"[0, 3, 7]",1,There are four squares.,"[1, 0]",filler,1,,1,1,"[5, 9, 2]",2,"[0, 0, 0]",True,True,True,There are four squares.,0,,,1,,There are four diamonds.,,6200,undefined,exh-subclausal,0,"[5, 4, 7]",10.811666666666667,2543,"[0, 0, 0]","[0, 1]"
"[7, 6, 5]",0,Some of the symbols are triangles.,"[1, 0]",filler,1,,1,0,"[9, 1, 8]",2,"[0, 0, 0]",True,True,True,Some of the symbols are triangles.,0,,,1,,Some of the symbols are circles.,,6496,undefined,exh-subclausal,0,"[9, 2, 0]",10.811666666666667,1831,"[0, 0, 0]","[0, 1]"
"[16, 8, 8]",0,Some of the symbols are squares.,"[1, 0]",filler,1,,1,3,"[12, 6, 6]",2,"[7, 0, 0]",True,True,True,6 + 6 = ?,0,,,1,,8 + 8 = ?,,5289,undefined,exh-subclausal,0,"[5, 4, 3]",10.811666666666667,2016,"[1, 0, 0]","[0, 1]"
"[5, 0, 4]",0,Some of the symbols are stars.,"[0, 1]",response,1,,1,2,"[5, 8, 1]",2,"[0, 0, 0]",True,True,True,Some but not all of the symbols are squares.,1,,,1,,Some but not all of the symbols are squares.,,7142,undefined,exh-subclausal,1,"[6, 5, 8]",10.811666666666667,3263,"[0, 0, 0]","[0, 1]"
"[0, 6, 3]",1,There are four diamonds.,"[0, 1]",filler,1,,1,0,"[3, 5, 6]",2,"[0, 0, 0]",True,True,True,There are four spades.,1,,,1,,There are four diamonds.,,5385,undefined,exh-subclausal,1,"[0, 4, 6]",10.811666666666667,2152,"[0, 0, 0]","[0, 1]"
"[1, 4, 8]",0,Some of the symbols are hearts.,"[0, 1]",filler,0,,0,1,"[4, 2, 1]",2,"[0, 0, 0]",True,True,True,Some of the symbols are hearts.,1,,,1,,Some of the symbols are clubs.,,5729,undefined,exh-subclausal,1,"[4, 0, 2]",10.811666666666667,1848,"[0, 0, 0]","[1, 0]"
"[5, 8, 3]",0,Some of the symbols are triangles.,"[1, 0]",response,0,,0,1,"[7, 2, 3]",2,"[0, 0, 0]",True,True,True,Some of the symbols are circles.,0,,,1,,Some of the symbols are squares.,,6416,undefined,exh-subclausal,0,"[9, 8, 0]",10.811666666666667,2049,"[0, 0, 0]","[1, 0]"
"[9, 2, 6]",2,There is a star.,"[0, 1]",filler,1,,1,2,"[1, 2, 8]",2,"[0, 0, 0]",True,True,True,There is a club but nothing else.,1,,,1,,There is a triangle but nothing else.,,6280,undefined,exh-subclausal,1,"[6, 0, 4]",10.811666666666667,2392,"[0, 0, 0]","[0, 1]"
"[6, 2, 3]",1,There are four squares.,"[1, 0]",response,1,,1,2,"[0, 4, 1]",2,"[0, 0, 0]",True,True,True,There are four but no more than four diamonds.,0,,,1,,There are four but no more than four stars.,,8624,undefined,exh-subclausal,0,"[5, 2, 8]",10.811666666666667,2679,"[0, 0, 0]","[0, 1]"
"[2, 5, 8]",1,There are four clubs.,"[1, 0]",response,0,,0,0,"[0, 9, 7]",2,"[0, 0, 0]",True,True,True,There are four diamonds.,0,,,1,,There are four ticks.,,6784,undefined,exh-subclausal,0,"[1, 4, 9]",10.811666666666667,2951,"[0, 0, 0]","[1, 0]"
"[9, 4, 2]",2,There is a star.,"[0, 1]",filler,0,,0,0,"[5, 8, 1]",2,"[0, 0, 0]",True,True,True,There is a square.,1,,,1,,There is a triangle.,,6743,undefined,exh-subclausal,1,"[6, 7, 4]",10.811666666666667,2726,"[0, 0, 0]","[1, 0]"
"[0, 4, 1]",0,Some of the symbols are circles.,"[0, 1]",response,0,,0,1,"[9, 7, 6]",2,"[0, 0, 0]",True,True,True,Some of the symbols are triangles.,1,,,1,,Some of the symbols are diamonds.,,6473,undefined,exh-subclausal,1,"[7, 5, 6]",10.811666666666667,2431,"[0, 0, 0]","[1, 0]"
"[7, 1, 6]",2,There is a square.,"[1, 0]",filler,0,,1,3,"[6, 2, 4]",2,"[6, 0, 0]",False,False,False,2 + 4 = ?,1,,,1,,1 + 6 = ?,,5472,undefined,exh-subclausal,0,"[5, 6, 3]",10.811666666666667,1775,"[1, 0, 0]","[0, 1]"
"[10, 8, 2]",2,There is a heart.,"[0, 1]",response,1,,1,3,"[7, 5, 2]",2,"[6, 0, 0]",True,False,False,5 + 2 = ?,0,,,1,,8 + 2 = ?,,4760,undefined,exh-subclausal,1,"[4, 2, 3]",10.811666666666667,1999,"[0, 0, 0]","[0, 1]"
"[6, 1, 3]",0,Some of the symbols are diamonds.,"[1, 0]",response,1,,1,0,"[0, 5, 4]",2,"[0, 0, 0]",True,True,True,Some of the symbols are diamonds.,0,,,1,,Some of the symbols are stars.,,8712,undefined,exh-subclausal,0,"[0, 1, 8]",10.811666666666667,2999,"[0, 0, 0]","[0, 1]"
"[1, 1, 0]",1,There are four squares.,"[1, 0]",response,1,,0,3,"[10, 6, 4]",2,"[3, 0, 0]",False,True,False,6 + 4 = ?,0,,,1,,1 + 0 = ?,,5224,undefined,exh-subclausal,0,"[5, 4, 6]",10.811666666666667,1720,"[7, 0, 0]","[1, 0]"
"[6, 3, 2]",2,There is a triangle.,"[1, 0]",filler,0,,0,1,"[7, 3, 5]",2,"[0, 0, 0]",True,True,True,There is a circle.,0,,,1,,There is a star.,,5192,undefined,exh-subclausal,0,"[9, 7, 6]",10.811666666666667,1928,"[0, 0, 0]","[1, 0]"
"[3, 0, 5]",1,There are four circles.,"[1, 0]",filler,0,,0,0,"[4, 0, 1]",2,"[0, 0, 0]",True,True,True,There are four hearts.,0,,,1,,There are four spades.,,5016,undefined,exh-subclausal,0,"[7, 1, 3]",10.811666666666667,1632,"[0, 0, 0]","[1, 0]"
"[4, 7, 5]",2,There is a club.,"[0, 1]",response,0,,0,2,"[5, 1, 8]",2,"[0, 0, 0]",True,True,True,There is a square but nothing else.,1,,,1,,There is a heart but nothing else.,,5504,undefined,exh-subclausal,1,"[1, 4, 6]",10.811666666666667,2344,"[0, 0, 0]","[1, 0]"
"[11, 7, 4]",1,There are four stars.,"[0, 1]",filler,1,,1,3,"[11, 3, 8]",2,"[8, 0, 0]",True,False,False,3 + 8 = ?,0,,,1,,7 + 4 = ?,,5784,undefined,exh-subclausal,1,"[6, 4, 3]",10.811666666666667,2271,"[6, 0, 0]","[0, 1]"
"[4, 9, 8]",2,There is a tick.,"[0, 1]",filler,0,,0,0,"[1, 8, 5]",2,"[0, 0, 0]",True,True,True,There is a club.,1,,,1,,There is a heart.,,5376,undefined,exh-subclausal,1,"[2, 0, 7]",10.811666666666667,1600,"[0, 0, 0]","[1, 0]"
"[1, 4, 3]",2,There is a triangle.,"[1, 0]",response,1,,1,0,"[7, 8, 3]",2,"[0, 0, 0]",True,True,True,There is a circle.,0,,,0,,There is a club.,,4832,undefined,exh-subclausal,0,"[9, 2, 5]",10.811666666666667,1512,"[0, 0, 0]","[0, 1]"
"[8, 7, 6]",0,Some of the symbols are diamonds.,"[0, 1]",response,0,,0,2,"[6, 3, 7]",2,"[0, 0, 0]",True,True,True,Some but not all of the symbols are stars.,1,,,1,,Some but not all of the symbols are notes.,,6936,undefined,exh-subclausal,1,"[0, 7, 2]",10.811666666666667,1784,"[0, 0, 0]","[1, 0]"
"[7, 0, 7]",0,Some of the symbols are stars.,"[0, 1]",response,1,,0,3,"[18, 9, 9]",2,"[0, 0, 0]",False,False,False,9 + 9 = ?,0,,,1,,0 + 7 = ?,,4464,undefined,exh-subclausal,1,"[6, 3, 7]",10.811666666666667,1560,"[9, 0, 0]","[1, 0]"
"[2, 6, 7]",2,There is a spade.,"[0, 1]",filler,1,,1,0,"[9, 4, 6]",2,"[0, 0, 0]",True,True,True,There is a triangle.,1,,,1,,There is a tick.,,5921,undefined,exh-subclausal,1,"[3, 0, 5]",10.811666666666667,2049,"[0, 0, 0]","[0, 1]"
"[6, 0, 4]",1,There are four circles.,"[1, 0]",response,0,,0,1,"[8, 3, 0]",2,"[0, 0, 0]",True,True,True,There are four notes.,0,,,1,,There are four stars.,,4567,undefined,exh-subclausal,0,"[7, 2, 3]",10.811666666666667,1480,"[0, 0, 0]","[1, 0]"
"[7, 6, 1]",0,Some of the symbols are spades.,"[1, 0]",filler,0,,1,3,"[9, 6, 3]",2,"[5, 0, 0]",False,False,False,6 + 3 = ?,1,,,1,,6 + 1 = ?,,4784,undefined,exh-subclausal,0,"[3, 9, 5]",10.811666666666667,1823,"[0, 0, 0]","[0, 1]"
"[0, 8, 9]",2,There is a heart.,"[0, 1]",filler,1,,1,1,"[8, 3, 9]",2,"[0, 0, 0]",True,True,True,There is a note.,1,,,1,,There is a diamond.,,5096,undefined,exh-subclausal,1,"[4, 1, 3]",10.811666666666667,1591,"[0, 0, 0]","[0, 1]"
"[1, 6, 4]",1,There are four squares.,"[1, 0]",response,0,,0,1,"[5, 1, 6]",2,"[0, 0, 0]",True,True,True,There are four squares.,0,,,1,,There are four clubs.,,4624,undefined,exh-subclausal,0,"[5, 3, 9]",10.811666666666667,1655,"[0, 0, 0]","[1, 0]"
"[8, 4, 9]",0,Some of the symbols are clubs.,"[1, 0]",response,1,,1,1,"[0, 3, 5]",2,"[0, 0, 0]",True,True,True,Some of the symbols are diamonds.,0,,,1,,Some of the symbols are notes.,,6880,undefined,exh-subclausal,0,"[1, 3, 7]",10.811666666666667,2271,"[0, 0, 0]","[0, 1]"
"[6, 3, 1]",0,Some of the symbols are squares.,"[1, 0]",response,0,,0,2,"[5, 6, 4]",2,"[0, 0, 0]",True,True,True,Some but not all of the symbols are squares.,0,,,1,,Some but not all of the symbols are stars.,,7496,undefined,exh-subclausal,0,"[5, 6, 8]",10.811666666666667,2567,"[0, 0, 0]","[1, 0]"
"[5, 3, 0]",0,Some of the symbols are hearts.,"[0, 1]",filler,1,,1,1,"[8, 4, 3]",2,"[0, 0, 0]",True,True,True,Some of the symbols are notes.,1,,,1,,Some of the symbols are squares.,,5448,undefined,exh-subclausal,1,"[4, 6, 5]",10.811666666666667,1839,"[0, 0, 0]","[0, 1]"
"[3, 1, 4]",1,There are four ticks.,"[1, 0]",response,0,,0,2,"[5, 7, 3]",2,"[0, 0, 0]",True,True,True,There are four but no more than four squares.,0,,,1,,There are four but no more than four spades.,,5256,undefined,exh-subclausal,0,"[2, 3, 5]",10.811666666666667,1895,"[0, 0, 0]","[1, 0]"
"[5, 9, 7]",1,There are four ticks.,"[0, 1]",filler,1,,1,1,"[5, 7, 9]",2,"[0, 0, 0]",True,True,True,There are four squares.,1,,,1,,There are four squares.,,5864,undefined,exh-subclausal,1,"[2, 9, 4]",10.811666666666667,1832,"[0, 0, 0]","[0, 1]"
"[1, 2, 8]",2,There is a circle.,"[0, 1]",response,1,,1,2,"[6, 8, 4]",2,"[0, 0, 0]",True,True,True,There is a star but nothing else.,1,,,1,,There is a club but nothing else.,,4880,undefined,exh-subclausal,1,"[7, 4, 8]",10.811666666666667,1559,"[0, 0, 0]","[0, 1]"
"[10, 5, 5]",2,There is a triangle.,"[1, 0]",response,0,,1,3,"[7, 0, 7]",2,"[5, 0, 0]",False,False,False,0 + 7 = ?,1,,,1,,5 + 5 = ?,,4744,undefined,exh-subclausal,0,"[9, 0, 3]",10.811666666666667,1743,"[0, 0, 0]","[0, 1]"
"[1, 9, 7]",2,There is a square.,"[0, 1]",response,0,,0,1,"[8, 9, 3]",2,"[0, 0, 0]",True,True,True,There is a note.,1,,,1,,There is a club.,,4176,undefined,exh-subclausal,1,"[5, 0, 7]",10.811666666666667,1432,"[0, 0, 0]","[1, 0]"
"[3, 7, 6]",0,Some of the symbols are diamonds.,"[0, 1]",response,1,,1,0,"[6, 1, 4]",2,"[0, 0, 0]",True,True,True,Some of the symbols are stars.,1,,,1,,Some of the symbols are spades.,,6952,undefined,exh-subclausal,1,"[0, 7, 2]",10.811666666666667,2056,"[0, 0, 0]","[0, 1]"
"[2, 5, 6]",2,There is a square.,"[0, 1]",filler,0,,0,2,"[5, 0, 7]",2,"[0, 0, 0]",True,True,True,There is a square but nothing else.,1,,,1,,There is a tick but nothing else.,,5272,undefined,exh-subclausal,1,"[5, 4, 1]",10.811666666666667,1991,"[0, 0, 0]","[1, 0]"
"[3, 7, 5]",1,There are four stars.,"[0, 1]",filler,1,,1,2,"[0, 3, 8]",2,"[0, 0, 0]",True,True,True,There are four but no more than four diamonds.,1,,,1,,There are four but no more than four spades.,,5584,undefined,exh-subclausal,1,"[6, 1, 3]",10.811666666666667,1672,"[0, 0, 0]","[0, 1]"
"[6, 1, 3]",1,There are four stars.,"[1, 0]",filler,0,,0,0,"[8, 4, 5]",2,"[0, 0, 0]",True,True,True,There are four notes.,0,,,1,,There are four stars.,,5304,undefined,exh-subclausal,0,"[6, 0, 2]",10.811666666666667,1894,"[0, 0, 0]","[1, 0]"
"[7, 5, 4]",2,There is a triangle.,"[0, 1]",filler,0,,0,0,"[7, 0, 1]",2,"[0, 0, 0]",True,True,True,There is a circle.,1,,,1,,There is a circle.,,5696,undefined,exh-subclausal,1,"[9, 5, 7]",10.811666666666667,1839,"[0, 0, 0]","[1, 0]"
"[12, 8, 4]",0,Some of the symbols are spades.,"[1, 0]",filler,0,,1,3,"[15, 6, 9]",2,"[5, 0, 0]",False,False,False,6 + 9 = ?,1,,,1,,8 + 4 = ?,,6048,undefined,exh-subclausal,0,"[3, 5, 4]",10.811666666666667,2072,"[7, 0, 0]","[0, 1]"
"[6, 5, 1]",0,Some of the symbols are hearts.,"[1, 0]",response,1,,1,3,"[9, 5, 4]",2,"[1, 0, 0]",True,True,True,5 + 4 = ?,0,,,1,,5 + 1 = ?,,4712,undefined,exh-subclausal,0,"[4, 5, 2]",10.811666666666667,1887,"[7, 0, 0]","[0, 1]"
"[4, 3, 0]",1,There are four ticks.,"[0, 1]",response,0,,0,0,"[5, 1, 3]",2,"[0, 0, 0]",True,True,True,There are four squares.,1,,,1,,There are four hearts.,,5464,undefined,exh-subclausal,1,"[2, 4, 3]",10.811666666666667,1991,"[0, 0, 0]","[1, 0]"
"[7, 1, 4]",0,Some of the symbols are clubs.,"[1, 0]",filler,1,,1,2,"[6, 8, 5]",2,"[0, 0, 0]",True,True,True,Some but not all of the symbols are stars.,0,,,1,,Some but not all of the symbols are circles.,,5744,undefined,exh-subclausal,0,"[1, 2, 0]",10.811666666666667,1919,"[0, 0, 0]","[0, 1]"
"[0, 2, 8]",2,There is a club.,"[0, 1]",filler,1,,1,2,"[1, 3, 9]",2,"[0, 0, 0]",True,True,True,There is a club but nothing else.,1,,,1,,There is a diamond but nothing else.,,5096,undefined,exh-subclausal,1,"[1, 6, 4]",10.811666666666667,1815,"[0, 0, 0]","[0, 1]"
"[3, 9, 1]",0,Some of the symbols are squares.,"[0, 1]",filler,1,,1,1,"[6, 7, 2]",2,"[0, 0, 0]",True,True,True,Some of the symbols are stars.,1,,,1,,Some of the symbols are spades.,,5872,undefined,exh-subclausal,1,"[5, 1, 7]",10.811666666666667,1991,"[0, 0, 0]","[0, 1]"
"[10, 6, 4]",0,Some of the symbols are circles.,"[0, 1]",response,1,,1,3,"[2, 1, 1]",2,"[5, 0, 0]",True,False,False,1 + 1 = ?,0,,,1,,6 + 4 = ?,,4360,undefined,exh-subclausal,1,"[7, 8, 2]",10.811666666666667,1535,"[6, 0, 0]","[0, 1]"
"[8, 3, 4]",0,Some of the symbols are circles.,"[1, 0]",response,1,,1,2,"[5, 8, 6]",2,"[0, 0, 0]",True,True,True,Some but not all of the symbols are squares.,0,,,1,,Some but not all of the symbols are notes.,,5272,undefined,exh-subclausal,0,"[7, 8, 2]",10.811666666666667,2183,"[0, 0, 0]","[0, 1]"
"[12, 5, 7]",0,Some of the symbols are hearts.,"[1, 0]",filler,1,,0,3,"[12, 9, 3]",2,"[7, 0, 0]",False,True,False,9 + 3 = ?,0,,,1,,5 + 7 = ?,,4400,undefined,exh-subclausal,0,"[4, 2, 0]",10.811666666666667,1511,"[0, 0, 0]","[1, 0]"
"[13, 8, 5]",0,Some of the symbols are clubs.,"[0, 1]",response,0,,1,3,"[6, 4, 2]",2,"[8, 0, 0]",False,True,False,4 + 2 = ?,1,,,1,,8 + 5 = ?,,5264,undefined,exh-subclausal,1,"[1, 3, 5]",10.811666666666667,1783,"[5, 0, 0]","[0, 1]"
"[1, 5, 2]",2,There is a square.,"[1, 0]",response,1,,1,1,"[6, 9, 0]",2,"[0, 0, 0]",True,True,True,There is a star.,0,,,1,,There is a club.,,5736,undefined,exh-subclausal,0,"[5, 6, 1]",10.811666666666667,2783,"[0, 0, 0]","[0, 1]"
"[3, 5, 2]",2,There is a club.,"[0, 1]",filler,1,,1,1,"[2, 0, 6]",2,"[0, 0, 0]",True,True,True,There is a tick.,1,,,1,,There is a spade.,,4720,undefined,exh-subclausal,1,"[1, 6, 4]",10.811666666666667,1687,"[0, 0, 0]","[0, 1]"
"[9, 7, 1]",1,There are four squares.,"[0, 1]",filler,0,,0,1,"[7, 1, 0]",2,"[0, 0, 0]",True,True,True,There are four circles.,1,,,1,,There are four triangles.,,4311,undefined,exh-subclausal,1,"[5, 8, 4]",10.811666666666667,1567,"[0, 0, 0]","[1, 0]"
"[1, 5, 3]",2,There is a circle.,"[1, 0]",response,1,,1,2,"[4, 2, 1]",2,"[0, 0, 0]",True,True,True,There is a heart but nothing else.,0,,,1,,There is a club but nothing else.,,5784,undefined,exh-subclausal,0,"[7, 6, 3]",10.811666666666667,2295,"[0, 0, 0]","[0, 1]"
"[10, 9, 1]",1,There are four clubs.,"[1, 0]",filler,1,,1,3,"[11, 4, 7]",2,"[4, 0, 0]",True,True,True,4 + 7 = ?,0,,,1,,9 + 1 = ?,,5144,undefined,exh-subclausal,0,"[1, 8, 6]",10.811666666666667,1415,"[0, 0, 0]","[0, 1]"
"[6, 9, 8]",2,There is a star.,"[1, 0]",response,0,,0,0,"[1, 3, 0]",2,"[0, 0, 0]",True,True,True,There is a club.,0,,,1,,There is a star.,,5784,undefined,exh-subclausal,0,"[6, 7, 3]",10.811666666666667,2023,"[0, 0, 0]","[1, 0]"
"[5, 0, 7]",0,Some of the symbols are spades.,"[1, 0]",response,0,,0,0,"[5, 7, 6]",2,"[0, 0, 0]",True,True,True,Some of the symbols are squares.,0,,,1,,Some of the symbols are squares.,,6560,undefined,exh-subclausal,0,"[3, 2, 5]",10.811666666666667,1903,"[0, 0, 0]","[1, 0]"
"[1, 4, 6]",2,There is a club.,"[0, 1]",response,1,,1,0,"[0, 2, 1]",2,"[0, 0, 0]",True,True,True,There is a diamond.,1,,,1,,There is a club.,,5888,undefined,exh-subclausal,1,"[1, 9, 4]",10.811666666666667,2095,"[0, 0, 0]","[0, 1]"
"[8, 4, 1]",2,There is a club.,"[0, 1]",response,1,,1,1,"[3, 6, 4]",2,"[0, 0, 0]",True,True,True,There is a spade.,1,,,1,,There is a note.,,6024,undefined,exh-subclausal,1,"[1, 9, 6]",10.811666666666667,1775,"[0, 0, 0]","[0, 1]"
"[6, 9, 1]",0,Some of the symbols are squares.,"[1, 0]",filler,0,,0,2,"[1, 3, 7]",2,"[0, 0, 0]",True,True,True,Some but not all of the symbols are clubs.,0,,,1,,Some but not all of the symbols are stars.,,6032,undefined,exh-subclausal,0,"[5, 8, 1]",10.811666666666667,1999,"[0, 0, 0]","[1, 0]"
"[6, 6, 0]",2,There is a star.,"[1, 0]",filler,0,,0,3,"[11, 7, 4]",2,"[9, 0, 0]",True,False,False,7 + 4 = ?,1,,,1,,6 + 0 = ?,,4568,undefined,exh-subclausal,0,"[6, 3, 5]",10.811666666666667,1615,"[7, 0, 0]","[1, 0]"
"[18, 9, 9]",2,There is a triangle.,"[0, 1]",filler,1,,0,3,"[12, 8, 4]",2,"[6, 0, 0]",False,False,False,8 + 4 = ?,0,,,1,,9 + 9 = ?,,4304,undefined,exh-subclausal,1,"[9, 1, 6]",10.811666666666667,1623,"[7, 0, 0]","[1, 0]"
,,,,,,bot_check,,,,3,,,,,,,1,"[0, 'Jessica']",,Jessica,,,,undefined,,,,8.728133333333334,,,
"[0, 4, 7]",1,There are four triangles.,"[0, 1]",filler,0,,0,2,"[3, 9, 4]",3,"[0, 0, 0]",True,True,True,There are four but no more than four spades.,1,,,1,,There are four but no more than four diamonds.,,8464,undefined,exh-subclausal,1,"[9, 3, 6]",8.728133333333334,2905,"[0, 0, 0]","[1, 0]"
"[5, 4, 2]",1,There are four triangles.,"[0, 1]",filler,1,,1,0,"[6, 3, 4]",3,"[0, 0, 0]",True,True,True,There are four stars.,1,,,1,,There are four squares.,,8188,undefined,exh-subclausal,1,"[9, 8, 7]",8.728133333333334,1738,"[0, 0, 0]","[0, 1]"
"[7, 3, 8]",0,Some of the symbols are spades.,"[1, 0]",filler,0,,0,1,"[6, 0, 7]",3,"[0, 0, 0]",True,True,True,Some of the symbols are stars.,0,,,1,,Some of the symbols are circles.,,6855,undefined,exh-subclausal,0,"[3, 5, 6]",8.728133333333334,2230,"[0, 0, 0]","[1, 0]"
"[3, 2, 0]",2,There is a tick.,"[1, 0]",filler,0,,0,2,"[0, 7, 4]",3,"[0, 0, 0]",True,True,True,There is a diamond but nothing else.,0,,,1,,There is a spade but nothing else.,,5786,undefined,exh-subclausal,0,"[2, 0, 6]",8.728133333333334,2464,"[0, 0, 0]","[1, 0]"
"[7, 2, 3]",1,There are four circles.,"[1, 0]",response,0,,0,1,"[2, 5, 9]",3,"[0, 0, 0]",True,True,True,There are four ticks.,0,,,1,,There are four circles.,,4185,undefined,exh-subclausal,0,"[7, 3, 4]",8.728133333333334,1355,"[0, 0, 0]","[1, 0]"
"[3, 7, 1]",1,There are four triangles.,"[0, 1]",response,1,,1,1,"[6, 4, 3]",3,"[0, 0, 0]",True,True,True,There are four stars.,1,,,1,,There are four spades.,,3752,undefined,exh-subclausal,1,"[9, 2, 3]",8.728133333333334,1281,"[0, 0, 0]","[0, 1]"
"[4, 8, 3]",2,There is a heart.,"[1, 0]",filler,1,,1,0,"[4, 1, 6]",3,"[0, 0, 0]",True,True,True,There is a heart.,0,,,1,,There is a heart.,,3857,undefined,exh-subclausal,0,"[4, 7, 2]",8.728133333333334,1198,"[0, 0, 0]","[0, 1]"
"[5, 3, 2]",1,There are four ticks.,"[0, 1]",response,0,,0,1,"[6, 3, 4]",3,"[0, 0, 0]",True,True,True,There are four stars.,1,,,1,,There are four squares.,,4946,undefined,exh-subclausal,1,"[2, 1, 5]",8.728133333333334,1795,"[0, 0, 0]","[1, 0]"
"[6, 2, 8]",0,Some of the symbols are diamonds.,"[1, 0]",filler,1,,1,2,"[9, 1, 0]",3,"[0, 0, 0]",True,True,True,Some but not all of the symbols are triangles.,0,,,1,,Some but not all of the symbols are stars.,,7194,undefined,exh-subclausal,0,"[0, 9, 8]",8.728133333333334,2399,"[0, 0, 0]","[0, 1]"
"[1, 0, 4]",0,Some of the symbols are circles.,"[0, 1]",response,1,,1,1,"[3, 0, 9]",3,"[0, 0, 0]",True,True,True,Some of the symbols are spades.,1,,,1,,Some of the symbols are clubs.,,6537,undefined,exh-subclausal,1,"[7, 6, 9]",8.728133333333334,1519,"[0, 0, 0]","[0, 1]"
"[10, 4, 6]",0,Some of the symbols are hearts.,"[1, 0]",response,0,,0,3,"[3, 1, 2]",3,"[4, 0, 0]",True,False,False,1 + 2 = ?,1,,,1,,4 + 6 = ?,,5535,undefined,exh-subclausal,0,"[4, 2, 5]",8.728133333333334,2059,"[8, 0, 0]","[1, 0]"
"[7, 5, 9]",2,There is a club.,"[1, 0]",response,1,,0,1,"[0, 4, 5]",3,"[0, 0, 0]",False,True,False,There is a diamond.,0,,,0,,There is a circle.,,4158,undefined,exh-subclausal,0,"[1, 9, 3]",8.728133333333334,1273,"[0, 0, 0]","[1, 0]"
"[12, 4, 8]",1,There are four clubs.,"[1, 0]",filler,1,,0,3,"[16, 9, 7]",3,"[4, 0, 0]",False,True,False,9 + 7 = ?,0,,,1,,4 + 8 = ?,,7145,undefined,exh-subclausal,0,"[1, 6, 0]",8.728133333333334,1838,"[3, 0, 0]","[1, 0]"
"[6, 0, 6]",0,Some of the symbols are clubs.,"[1, 0]",filler,0,,0,3,"[10, 2, 8]",3,"[9, 0, 0]",True,False,False,2 + 8 = ?,1,,,1,,0 + 6 = ?,,4560,undefined,exh-subclausal,0,"[1, 4, 9]",8.728133333333334,1789,"[9, 0, 0]","[1, 0]"
"[8, 2, 1]",2,There is a diamond.,"[0, 1]",filler,0,,0,0,"[6, 0, 9]",3,"[0, 0, 0]",True,True,True,There is a star.,1,,,1,,There is a note.,,4238,undefined,exh-subclausal,1,"[0, 9, 8]",8.728133333333334,1205,"[0, 0, 0]","[1, 0]"
"[5, 3, 4]",1,There are four hearts.,"[1, 0]",filler,0,,0,1,"[8, 5, 0]",3,"[0, 0, 0]",True,True,True,There are four notes.,0,,,1,,There are four squares.,,2976,undefined,exh-subclausal,0,"[4, 8, 6]",8.728133333333334,1110,"[0, 0, 0]","[1, 0]"
"[2, 4, 1]",1,There are four hearts.,"[1, 0]",filler,0,,0,2,"[8, 9, 4]",3,"[0, 0, 0]",True,True,True,There are four but no more than four notes.,0,,,1,,There are four but no more than four ticks.,,4538,undefined,exh-subclausal,0,"[4, 9, 3]",8.728133333333334,1035,"[0, 0, 0]","[1, 0]"
"[7, 2, 4]",2,There is a spade.,"[0, 1]",filler,1,,1,0,"[1, 2, 3]",3,"[0, 0, 0]",True,True,True,There is a club.,1,,,1,,There is a circle.,,4706,undefined,exh-subclausal,1,"[3, 4, 6]",8.728133333333334,1199,"[0, 0, 0]","[0, 1]"
"[4, 0, 9]",0,Some of the symbols are circles.,"[1, 0]",filler,1,,1,1,"[5, 8, 3]",3,"[0, 0, 0]",True,True,True,Some of the symbols are squares.,0,,,1,,Some of the symbols are hearts.,,6022,undefined,exh-subclausal,0,"[7, 2, 1]",8.728133333333334,1729,"[0, 0, 0]","[0, 1]"
"[4, 8, 7]",2,There is a tick.,"[1, 0]",filler,1,,1,1,"[2, 4, 5]",3,"[0, 0, 0]",True,True,True,There is a tick.,0,,,1,,There is a heart.,,4080,undefined,exh-subclausal,0,"[2, 6, 5]",8.728133333333334,1286,"[0, 0, 0]","[0, 1]"
"[7, 1, 6]",2,There is a heart.,"[0, 1]",filler,0,,0,3,"[7, 0, 7]",3,"[5, 0, 0]",True,True,True,0 + 7 = ?,1,,,1,,1 + 6 = ?,,4872,undefined,exh-subclausal,1,"[4, 3, 9]",8.728133333333334,1903,"[7, 0, 0]","[1, 0]"
"[2, 0, 3]",1,There are four triangles.,"[0, 1]",response,0,,0,0,"[1, 7, 0]",3,"[0, 0, 0]",True,True,True,There are four clubs.,1,,,0,,There are four ticks.,,6011,undefined,exh-subclausal,1,"[9, 7, 3]",8.728133333333334,1720,"[0, 0, 0]","[1, 0]"
"[4, 9, 5]",1,There are four hearts.,"[0, 1]",response,0,,0,2,"[0, 6, 5]",3,"[0, 0, 0]",True,True,True,There are four but no more than four diamonds.,1,,,1,,There are four but no more than four hearts.,,6308,undefined,exh-subclausal,1,"[4, 7, 3]",8.728133333333334,1278,"[0, 0, 0]","[1, 0]"
"[2, 1, 8]",1,There are four hearts.,"[0, 1]",filler,1,,1,2,"[0, 8, 7]",3,"[0, 0, 0]",True,True,True,There are four but no more than four diamonds.,1,,,1,,There are four but no more than four ticks.,,8114,undefined,exh-subclausal,1,"[4, 8, 6]",8.728133333333334,969,"[0, 0, 0]","[0, 1]"
"[16, 9, 7]",0,Some of the symbols are circles.,"[0, 1]",filler,0,,1,3,"[16, 9, 7]",3,"[8, 0, 0]",False,True,False,9 + 7 = ?,1,,,1,,9 + 7 = ?,,8855,undefined,exh-subclausal,1,"[7, 5, 4]",8.728133333333334,2468,"[0, 0, 0]","[0, 1]"
"[11, 6, 5]",1,There are four diamonds.,"[1, 0]",response,0,,1,3,"[12, 7, 5]",3,"[7, 0, 0]",False,False,False,7 + 5 = ?,1,,,1,,6 + 5 = ?,,3889,undefined,exh-subclausal,0,"[0, 2, 1]",8.728133333333334,1040,"[4, 0, 0]","[0, 1]"
"[7, 1, 4]",0,Some of the symbols are squares.,"[0, 1]",response,1,,1,2,"[4, 9, 0]",3,"[0, 0, 0]",True,True,True,Some but not all of the symbols are hearts.,1,,,1,,Some but not all of the symbols are circles.,,4436,undefined,exh-subclausal,1,"[5, 4, 8]",8.728133333333334,1290,"[0, 0, 0]","[0, 1]"
"[3, 7, 9]",2,There is a heart.,"[0, 1]",filler,1,,1,2,"[7, 3, 8]",3,"[0, 0, 0]",True,True,True,There is a circle but nothing else.,1,,,1,,There is a spade but nothing else.,,3415,undefined,exh-subclausal,1,"[4, 3, 2]",8.728133333333334,1280,"[0, 0, 0]","[0, 1]"
"[5, 8, 6]",0,Some of the symbols are stars.,"[0, 1]",filler,0,,0,1,"[2, 3, 7]",3,"[0, 0, 0]",True,True,True,Some of the symbols are ticks.,1,,,1,,Some of the symbols are squares.,,4103,undefined,exh-subclausal,1,"[6, 0, 3]",8.728133333333334,1122,"[0, 0, 0]","[1, 0]"
"[3, 5, 1]",0,Some of the symbols are circles.,"[1, 0]",response,1,,1,2,"[7, 5, 4]",3,"[0, 0, 0]",True,True,True,Some but not all of the symbols are circles.,0,,,1,,Some but not all of the symbols are spades.,,4104,undefined,exh-subclausal,0,"[7, 4, 8]",8.728133333333334,1329,"[0, 0, 0]","[0, 1]"
"[1, 6, 9]",0,Some of the symbols are diamonds.,"[0, 1]",filler,1,,1,0,"[8, 1, 9]",3,"[0, 0, 0]",True,True,True,Some of the symbols are notes.,1,,,1,,Some of the symbols are clubs.,,4558,undefined,exh-subclausal,1,"[0, 3, 4]",8.728133333333334,1434,"[0, 0, 0]","[0, 1]"
"[12, 6, 6]",0,Some of the symbols are ticks.,"[1, 0]",filler,1,,1,3,"[4, 2, 2]",3,"[5, 0, 0]",True,True,True,2 + 2 = ?,0,,,1,,6 + 6 = ?,,3696,undefined,exh-subclausal,0,"[2, 1, 5]",8.728133333333334,1215,"[9, 0, 0]","[0, 1]"
"[6, 4, 7]",0,Some of the symbols are hearts.,"[0, 1]",response,1,,1,0,"[9, 7, 6]",3,"[0, 0, 0]",True,True,True,Some of the symbols are triangles.,1,,,0,,Some of the symbols are stars.,,3989,undefined,exh-subclausal,1,"[4, 8, 1]",8.728133333333334,1315,"[0, 0, 0]","[0, 1]"
"[8, 0, 4]",2,There is a square.,"[1, 0]",response,0,,0,1,"[8, 2, 6]",3,"[0, 0, 0]",True,True,True,There is a note.,0,,,0,,There is a note.,,3753,undefined,exh-subclausal,0,"[5, 9, 7]",8.728133333333334,967,"[0, 0, 0]","[1, 0]"
"[8, 1, 2]",2,There is a spade.,"[0, 1]",filler,0,,0,0,"[0, 2, 9]",3,"[0, 0, 0]",True,True,True,There is a diamond.,1,,,1,,There is a note.,,3933,undefined,exh-subclausal,1,"[3, 7, 0]",8.728133333333334,1411,"[0, 0, 0]","[1, 0]"
"[4, 8, 9]",1,There are four squares.,"[1, 0]",response,0,,0,0,"[5, 8, 1]",3,"[0, 0, 0]",True,True,True,There are four squares.,0,,,0,,There are four hearts.,,3734,undefined,exh-subclausal,0,"[5, 9, 7]",8.728133333333334,1222,"[0, 0, 0]","[1, 0]"
"[13, 7, 6]",2,There is a club.,"[1, 0]",filler,0,,0,3,"[18, 9, 9]",3,"[9, 0, 0]",True,False,False,9 + 9 = ?,1,,,1,,7 + 6 = ?,,5097,undefined,exh-subclausal,0,"[1, 3, 7]",8.728133333333334,2089,"[2, 0, 0]","[1, 0]"
"[1, 7, 8]",0,Some of the symbols are notes.,"[0, 1]",response,1,,1,1,"[6, 4, 1]",3,"[0, 0, 0]",True,True,True,Some of the symbols are stars.,1,,,0,,Some of the symbols are clubs.,,7246,undefined,exh-subclausal,1,"[8, 2, 9]",8.728133333333334,1428,"[0, 0, 0]","[0, 1]"
"[6, 1, 9]",1,There are four squares.,"[0, 1]",filler,1,,1,1,"[8, 0, 9]",3,"[0, 0, 0]",True,True,True,There are four notes.,1,,,1,,There are four stars.,,3662,undefined,exh-subclausal,1,"[5, 6, 9]",8.728133333333334,1216,"[0, 0, 0]","[0, 1]"
"[1, 8, 9]",1,There are four diamonds.,"[0, 1]",response,0,,0,0,"[3, 1, 9]",3,"[0, 0, 0]",True,True,True,There are four spades.,1,,,0,,There are four clubs.,,3810,undefined,exh-subclausal,1,"[0, 4, 5]",8.728133333333334,1058,"[0, 0, 0]","[1, 0]"
"[4, 2, 2]",2,There is a triangle.,"[1, 0]",response,0,,0,3,"[10, 8, 2]",3,"[0, 0, 0]",True,False,False,8 + 2 = ?,1,,,0,,2 + 2 = ?,,3686,undefined,exh-subclausal,0,"[9, 0, 4]",8.728133333333334,1434,"[9, 0, 0]","[1, 0]"
"[8, 6, 3]",0,Some of the symbols are ticks.,"[1, 0]",filler,0,,0,0,"[0, 8, 5]",3,"[0, 0, 0]",True,True,True,Some of the symbols are diamonds.,0,,,1,,Some of the symbols are notes.,,4642,undefined,exh-subclausal,0,"[2, 9, 5]",8.728133333333334,1195,"[0, 0, 0]","[1, 0]"
"[8, 4, 0]",1,There are four triangles.,"[0, 1]",filler,1,,1,0,"[9, 2, 6]",3,"[0, 0, 0]",True,True,True,There are four triangles.,1,,,1,,There are four notes.,,4019,undefined,exh-subclausal,1,"[9, 4, 5]",8.728133333333334,1341,"[0, 0, 0]","[0, 1]"
"[8, 8, 0]",1,There are four stars.,"[0, 1]",response,1,,1,3,"[5, 5, 0]",3,"[0, 0, 0]",True,False,False,5 + 0 = ?,0,,,1,,8 + 0 = ?,,4326,undefined,exh-subclausal,1,"[6, 9, 7]",8.728133333333334,1995,"[7, 0, 0]","[0, 1]"
"[3, 1, 6]",2,There is a square.,"[0, 1]",response,1,,1,1,"[5, 3, 0]",3,"[0, 0, 0]",True,True,True,There is a square.,1,,,0,,There is a spade.,,4196,undefined,exh-subclausal,1,"[5, 8, 3]",8.728133333333334,1578,"[0, 0, 0]","[0, 1]"
"[0, 2, 3]",0,Some of the symbols are circles.,"[0, 1]",response,0,,0,1,"[3, 7, 2]",3,"[0, 0, 0]",True,True,True,Some of the symbols are spades.,1,,,1,,Some of the symbols are diamonds.,,4965,undefined,exh-subclausal,1,"[7, 9, 3]",8.728133333333334,1096,"[0, 0, 0]","[1, 0]"
"[9, 3, 8]",1,There are four hearts.,"[0, 1]",filler,1,,1,0,"[3, 6, 8]",3,"[0, 0, 0]",True,True,True,There are four spades.,1,,,1,,There are four triangles.,,3263,undefined,exh-subclausal,1,"[4, 3, 6]",8.728133333333334,837,"[0, 0, 0]","[0, 1]"
"[6, 0, 6]",1,There are four diamonds.,"[1, 0]",response,0,,0,3,"[16, 7, 9]",3,"[0, 0, 0]",True,False,False,7 + 9 = ?,1,,,1,,0 + 6 = ?,,4209,undefined,exh-subclausal,0,"[0, 2, 1]",8.728133333333334,1400,"[0, 0, 0]","[1, 0]"
"[8, 6, 4]",2,There is a spade.,"[1, 0]",response,0,,0,2,"[8, 5, 6]",3,"[0, 0, 0]",True,True,True,There is a note but nothing else.,0,,,0,,There is a note but nothing else.,,3819,undefined,exh-subclausal,0,"[3, 8, 0]",8.728133333333334,1315,"[0, 0, 0]","[1, 0]"
"[3, 0, 8]",2,There is a tick.,"[0, 1]",filler,0,,0,1,"[0, 8, 1]",3,"[0, 0, 0]",True,True,True,There is a diamond.,1,,,0,,There is a spade.,,3384,undefined,exh-subclausal,1,"[2, 0, 8]",8.728133333333334,1024,"[0, 0, 0]","[1, 0]"
"[3, 6, 5]",0,Some of the symbols are circles.,"[0, 1]",response,0,,0,0,"[4, 8, 2]",3,"[0, 0, 0]",True,True,True,Some of the symbols are hearts.,1,,,1,,Some of the symbols are spades.,,4718,undefined,exh-subclausal,1,"[7, 8, 6]",8.728133333333334,1980,"[0, 0, 0]","[1, 0]"
"[2, 8, 7]",0,Some of the symbols are ticks.,"[0, 1]",filler,1,,0,2,"[5, 1, 0]",3,"[0, 0, 0]",False,True,False,Some but not all of the symbols are squares.,1,,,1,,Some but not all of the symbols are ticks.,,5724,undefined,exh-subclausal,1,"[2, 6, 5]",8.728133333333334,1707,"[0, 0, 0]","[1, 0]"
"[1, 5, 9]",2,There is a tick.,"[1, 0]",response,1,,1,2,"[0, 4, 2]",3,"[0, 0, 0]",True,True,True,There is a diamond but nothing else.,0,,,0,,There is a club but nothing else.,,3653,undefined,exh-subclausal,0,"[2, 0, 4]",8.728133333333334,1223,"[0, 0, 0]","[0, 1]"
"[9, 5, 3]",0,Some of the symbols are spades.,"[0, 1]",filler,0,,0,0,"[5, 9, 8]",3,"[0, 0, 0]",True,True,True,Some of the symbols are squares.,1,,,1,,Some of the symbols are triangles.,,4640,undefined,exh-subclausal,1,"[3, 9, 2]",8.728133333333334,1138,"[0, 0, 0]","[1, 0]"
"[6, 4, 2]",2,There is a club.,"[1, 0]",response,1,,1,3,"[16, 8, 8]",3,"[3, 0, 0]",True,True,True,8 + 8 = ?,0,,,0,,4 + 2 = ?,,3347,undefined,exh-subclausal,0,"[1, 6, 2]",8.728133333333334,1146,"[2, 0, 0]","[0, 1]"
"[8, 1, 7]",2,There is a triangle.,"[1, 0]",filler,0,,1,3,"[10, 8, 2]",3,"[4, 0, 0]",False,False,False,8 + 2 = ?,1,,,1,,1 + 7 = ?,,3914,undefined,exh-subclausal,0,"[9, 4, 5]",8.728133333333334,1500,"[1, 0, 0]","[0, 1]"
"[9, 8, 3]",1,There are four clubs.,"[0, 1]",response,1,,1,2,"[7, 4, 0]",3,"[0, 0, 0]",True,True,True,There are four but no more than four circles.,1,,,0,,There are four but no more than four triangles.,,3849,undefined,exh-subclausal,1,"[1, 2, 5]",8.728133333333334,1552,"[0, 0, 0]","[0, 1]"
"[8, 4, 6]",0,Some of the symbols are diamonds.,"[1, 0]",filler,1,,1,1,"[8, 0, 5]",3,"[0, 0, 0]",True,True,True,Some of the symbols are notes.,0,,,1,,Some of the symbols are notes.,,4967,undefined,exh-subclausal,0,"[0, 6, 9]",8.728133333333334,1193,"[0, 0, 0]","[0, 1]"
"[2, 9, 4]",1,There are four notes.,"[0, 1]",response,1,,1,2,"[2, 6, 0]",3,"[0, 0, 0]",True,True,True,There are four but no more than four ticks.,1,,,1,,There are four but no more than four ticks.,,4571,undefined,exh-subclausal,1,"[8, 1, 6]",8.728133333333334,1605,"[0, 0, 0]","[0, 1]"
"[5, 3, 9]",1,There are four notes.,"[1, 0]",filler,1,,1,0,"[8, 5, 2]",3,"[0, 0, 0]",True,True,True,There are four notes.,0,,,1,,There are four squares.,,4025,undefined,exh-subclausal,0,"[8, 9, 3]",8.728133333333334,1343,"[0, 0, 0]","[0, 1]"
"[0, 0, 0]",1,There are four squares.,"[1, 0]",filler,1,,1,3,"[10, 7, 3]",3,"[1, 0, 0]",True,True,True,7 + 3 = ?,0,,,1,,0 + 0 = ?,,3297,undefined,exh-subclausal,0,"[5, 3, 1]",8.728133333333334,1044,"[1, 0, 0]","[0, 1]"
"[2, 6, 4]",2,There is a diamond.,"[1, 0]",response,0,,0,2,"[4, 8, 1]",3,"[0, 0, 0]",True,True,True,There is a heart but nothing else.,0,,,0,,There is a tick but nothing else.,,3785,undefined,exh-subclausal,0,"[0, 7, 4]",8.728133333333334,1252,"[0, 0, 0]","[1, 0]"
"[2, 4, 1]",0,Some of the symbols are clubs.,"[1, 0]",filler,0,,0,2,"[3, 4, 2]",3,"[0, 0, 0]",True,True,True,Some but not all of the symbols are spades.,0,,,1,,Some but not all of the symbols are ticks.,,4843,undefined,exh-subclausal,0,"[1, 0, 4]",8.728133333333334,1538,"[0, 0, 0]","[1, 0]"
"[1, 6, 7]",2,There is a square.,"[1, 0]",response,0,,0,0,"[0, 1, 5]",3,"[0, 0, 0]",True,True,True,There is a diamond.,0,,,0,,There is a club.,,6141,undefined,exh-subclausal,0,"[5, 7, 2]",8.728133333333334,1225,"[0, 0, 0]","[1, 0]"
"[7, 3, 8]",0,Some of the symbols are squares.,"[0, 1]",response,0,,0,2,"[4, 9, 0]",3,"[0, 0, 0]",True,True,True,Some but not all of the symbols are hearts.,1,,,0,,Some but not all of the symbols are circles.,,6321,undefined,exh-subclausal,1,"[5, 2, 7]",8.728133333333334,2504,"[0, 0, 0]","[1, 0]"
"[8, 6, 5]",1,There are four squares.,"[1, 0]",response,1,,1,0,"[7, 1, 9]",3,"[0, 0, 0]",True,True,True,There are four circles.,0,,,0,,There are four notes.,,4393,undefined,exh-subclausal,0,"[5, 0, 1]",8.728133333333334,1290,"[0, 0, 0]","[0, 1]"
"[0, 1, 9]",1,There are four diamonds.,"[0, 1]",response,0,,0,1,"[3, 0, 6]",3,"[0, 0, 0]",True,True,True,There are four spades.,1,,,1,,There are four diamonds.,,3619,undefined,exh-subclausal,1,"[0, 7, 1]",8.728133333333334,1546,"[0, 0, 0]","[1, 0]"
"[5, 0, 5]",2,There is a square.,"[0, 1]",response,0,,0,3,"[10, 2, 8]",3,"[0, 0, 0]",True,True,True,2 + 8 = ?,1,,,0,,0 + 5 = ?,,3331,undefined,exh-subclausal,1,"[5, 6, 1]",8.728133333333334,1309,"[1, 0, 0]","[1, 0]"
"[8, 9, 4]",0,Some of the symbols are ticks.,"[0, 1]",response,0,,0,2,"[7, 9, 2]",3,"[0, 0, 0]",True,True,True,Some but not all of the symbols are circles.,1,,,1,,Some but not all of the symbols are notes.,,5176,undefined,exh-subclausal,1,"[2, 6, 1]",8.728133333333334,1788,"[0, 0, 0]","[1, 0]"
"[10, 9, 1]",1,There are four notes.,"[1, 0]",response,0,,0,3,"[15, 8, 7]",3,"[5, 0, 0]",True,False,False,8 + 7 = ?,1,,,1,,9 + 1 = ?,,3572,undefined,exh-subclausal,0,"[8, 4, 1]",8.728133333333334,1255,"[4, 0, 0]","[1, 0]"
"[12, 8, 4]",0,Some of the symbols are clubs.,"[1, 0]",response,0,,1,3,"[5, 3, 2]",3,"[4, 0, 0]",False,False,False,3 + 2 = ?,1,,,0,,8 + 4 = ?,,5258,undefined,exh-subclausal,0,"[1, 6, 8]",8.728133333333334,2456,"[6, 0, 0]","[0, 1]"
"[7, 3, 9]",2,There is a note.,"[1, 0]",response,1,,1,0,"[2, 1, 3]",3,"[0, 0, 0]",True,True,True,There is a tick.,0,,,0,,There is a circle.,,3827,undefined,exh-subclausal,0,"[8, 5, 2]",8.728133333333334,1417,"[0, 0, 0]","[0, 1]"
"[4, 8, 1]",2,There is a star.,"[0, 1]",response,1,,1,0,"[8, 3, 7]",3,"[0, 0, 0]",True,True,True,There is a note.,1,,,0,,There is a heart.,,5043,undefined,exh-subclausal,1,"[6, 1, 8]",8.728133333333334,2120,"[0, 0, 0]","[0, 1]"
"[6, 1, 4]",2,There is a spade.,"[1, 0]",response,1,,1,0,"[8, 7, 4]",3,"[0, 0, 0]",True,True,True,There is a note.,0,,,0,,There is a star.,,3171,undefined,exh-subclausal,0,"[3, 9, 2]",8.728133333333334,1007,"[0, 0, 0]","[0, 1]"
"[13, 7, 6]",1,There are four spades.,"[0, 1]",filler,0,,0,3,"[10, 1, 9]",3,"[2, 0, 0]",True,True,True,1 + 9 = ?,1,,,1,,7 + 6 = ?,,34109,undefined,exh-subclausal,1,"[3, 1, 7]",8.728133333333334,1634,"[4, 0, 0]","[1, 0]"
"[9, 0, 7]",1,There are four clubs.,"[1, 0]",response,0,,0,2,"[1, 7, 6]",3,"[0, 0, 0]",True,True,True,There are four but no more than four clubs.,0,,,1,,There are four but no more than four triangles.,,4194,undefined,exh-subclausal,0,"[1, 3, 5]",8.728133333333334,1315,"[0, 0, 0]","[1, 0]"
"[15, 8, 7]",1,There are four triangles.,"[0, 1]",filler,0,,0,3,"[16, 8, 8]",3,"[6, 0, 0]",True,True,True,8 + 8 = ?,1,,,1,,8 + 7 = ?,,3113,undefined,exh-subclausal,1,"[9, 1, 4]",8.728133333333334,1032,"[6, 0, 0]","[1, 0]"
"[7, 2, 4]",0,Some of the symbols are clubs.,"[1, 0]",filler,1,,1,0,"[1, 5, 2]",3,"[0, 0, 0]",True,True,True,Some of the symbols are clubs.,0,,,1,,Some of the symbols are circles.,,4104,undefined,exh-subclausal,0,"[1, 4, 5]",8.728133333333334,1238,"[0, 0, 0]","[0, 1]"
"[2, 9, 7]",1,There are four hearts.,"[1, 0]",filler,1,,1,1,"[4, 2, 3]",3,"[0, 0, 0]",True,True,True,There are four hearts.,0,,,1,,There are four ticks.,,2941,undefined,exh-subclausal,0,"[4, 9, 7]",8.728133333333334,1173,"[0, 0, 0]","[0, 1]"
"[1, 6, 8]",2,There is a club.,"[1, 0]",filler,0,,0,2,"[3, 1, 8]",3,"[0, 0, 0]",True,True,True,There is a spade but nothing else.,0,,,1,,There is a club but nothing else.,,3396,undefined,exh-subclausal,0,"[1, 4, 8]",8.728133333333334,1292,"[0, 0, 0]","[1, 0]"
"[4, 0, 5]",0,Some of the symbols are notes.,"[0, 1]",response,0,,0,1,"[6, 1, 5]",3,"[0, 0, 0]",True,True,True,Some of the symbols are stars.,1,,,1,,Some of the symbols are hearts.,,4530,undefined,exh-subclausal,1,"[8, 5, 1]",8.728133333333334,1558,"[0, 0, 0]","[1, 0]"
"[7, 6, 0]",0,Some of the symbols are clubs.,"[1, 0]",filler,1,,1,2,"[7, 3, 4]",3,"[0, 0, 0]",True,True,True,Some but not all of the symbols are circles.,0,,,1,,Some but not all of the symbols are circles.,,3685,undefined,exh-subclausal,0,"[1, 4, 2]",8.728133333333334,1145,"[0, 0, 0]","[0, 1]"
"[8, 9, 7]",2,There is a heart.,"[0, 1]",filler,0,,0,1,"[9, 1, 8]",3,"[0, 0, 0]",True,True,True,There is a triangle.,1,,,1,,There is a note.,,3598,undefined,exh-subclausal,1,"[4, 0, 2]",8.728133333333334,1152,"[0, 0, 0]","[1, 0]"
"[8, 6, 2]",0,Some of the symbols are hearts.,"[0, 1]",response,0,,0,3,"[16, 7, 9]",3,"[7, 0, 0]",True,True,True,7 + 9 = ?,1,,,1,,6 + 2 = ?,,3460,undefined,exh-subclausal,1,"[4, 0, 5]",8.728133333333334,1196,"[7, 0, 0]","[1, 0]"
"[0, 0, 0]",2,There is a circle.,"[0, 1]",response,1,,1,3,"[10, 8, 2]",3,"[1, 0, 0]",True,False,False,8 + 2 = ?,0,,,0,,0 + 0 = ?,,3456,undefined,exh-subclausal,1,"[7, 4, 8]",8.728133333333334,1301,"[0, 0, 0]","[0, 1]"
"[4, 6, 9]",2,There is a square.,"[1, 0]",response,1,,1,1,"[5, 3, 6]",3,"[0, 0, 0]",True,True,True,There is a square.,0,,,0,,There is a heart.,,3196,undefined,exh-subclausal,0,"[5, 1, 7]",8.728133333333334,998,"[0, 0, 0]","[0, 1]"
"[8, 7, 1]",0,Some of the symbols are clubs.,"[0, 1]",filler,0,,0,3,"[4, 0, 4]",3,"[1, 0, 0]",True,True,True,0 + 4 = ?,1,,,1,,7 + 1 = ?,,3453,undefined,exh-subclausal,1,"[1, 0, 3]",8.728133333333334,1354,"[7, 0, 0]","[1, 0]"
"[0, 5, 7]",0,Some of the symbols are stars.,"[1, 0]",response,1,,1,0,"[6, 7, 9]",3,"[0, 0, 0]",True,True,True,Some of the symbols are stars.,0,,,0,,Some of the symbols are diamonds.,,3048,undefined,exh-subclausal,0,"[6, 9, 5]",8.728133333333334,1080,"[0, 0, 0]","[0, 1]"
"[5, 3, 2]",2,There is a triangle.,"[1, 0]",filler,0,,0,1,"[5, 8, 1]",3,"[0, 0, 0]",True,True,True,There is a square.,0,,,1,,There is a square.,,3560,undefined,exh-subclausal,0,"[9, 0, 4]",8.728133333333334,1224,"[0, 0, 0]","[1, 0]"
"[7, 2, 0]",1,There are four circles.,"[0, 1]",filler,1,,1,1,"[2, 6, 4]",3,"[0, 0, 0]",True,True,True,There are four ticks.,1,,,1,,There are four circles.,,3032,undefined,exh-subclausal,1,"[7, 1, 8]",8.728133333333334,1141,"[0, 0, 0]","[0, 1]"
"[9, 9, 0]",2,There is a tick.,"[0, 1]",filler,0,,1,3,"[13, 6, 7]",3,"[2, 0, 0]",False,True,False,6 + 7 = ?,1,,,1,,9 + 0 = ?,,3808,undefined,exh-subclausal,1,"[2, 8, 9]",8.728133333333334,1016,"[2, 0, 0]","[0, 1]"
"[3, 1, 7]",2,There is a square.,"[0, 1]",response,1,,1,2,"[0, 3, 7]",3,"[0, 0, 0]",True,True,True,There is a diamond but nothing else.,1,,,0,,There is a spade but nothing else.,,3234,undefined,exh-subclausal,1,"[5, 2, 3]",8.728133333333334,1236,"[0, 0, 0]","[0, 1]"
"[7, 1, 9]",0,Some of the symbols are squares.,"[1, 0]",response,1,,1,0,"[1, 8, 7]",3,"[0, 0, 0]",True,True,True,Some of the symbols are clubs.,0,,,0,,Some of the symbols are circles.,,3463,undefined,exh-subclausal,0,"[5, 7, 2]",8.728133333333334,968,"[0, 0, 0]","[0, 1]"
"[6, 1, 8]",2,There is a diamond.,"[1, 0]",filler,0,,0,2,"[7, 1, 0]",3,"[0, 0, 0]",True,True,True,There is a circle but nothing else.,0,,,1,,There is a star but nothing else.,,2839,undefined,exh-subclausal,0,"[0, 7, 2]",8.728133333333334,920,"[0, 0, 0]","[1, 0]"
"[8, 8, 0]",0,Some of the symbols are clubs.,"[1, 0]",response,1,,1,3,"[10, 2, 8]",3,"[6, 0, 0]",True,True,True,2 + 8 = ?,0,,,0,,8 + 0 = ?,,3491,undefined,exh-subclausal,0,"[1, 2, 9]",8.728133333333334,1487,"[8, 0, 0]","[0, 1]"
"[3, 9, 7]",1,There are four diamonds.,"[0, 1]",filler,1,,1,2,"[9, 0, 5]",3,"[0, 0, 0]",True,True,True,There are four but no more than four triangles.,1,,,1,,There are four but no more than four spades.,,3298,undefined,exh-subclausal,1,"[0, 9, 5]",8.728133333333334,1043,"[0, 0, 0]","[0, 1]"
,,,,,,bot_check,,,,4,,,,,,,1,"[0, 'Margaret']",,Margaret,,,,undefined,,,,11.02615,,,
"[6, 9, 8]",2,There is a note.,"[1, 0]",filler,1,,1,2,"[1, 2, 9]",4,"[0, 0, 0]",True,True,True,There is a club but nothing else.,0,,,1,,There is a star but nothing else.,,5886,undefined,exh-subclausal,0,"[8, 0, 6]",11.02615,2234,"[0, 0, 0]","[0, 1]"
"[15, 9, 6]",1,There are four clubs.,"[1, 0]",filler,0,,0,3,"[3, 1, 2]",4,"[6, 0, 0]",True,False,False,1 + 2 = ?,1,,,1,,9 + 6 = ?,,5207,undefined,exh-subclausal,0,"[1, 7, 2]",11.02615,1279,"[8, 0, 0]","[1, 0]"
"[7, 8, 4]",2,There is a heart.,"[0, 1]",filler,1,,1,0,"[8, 7, 5]",4,"[0, 0, 0]",True,True,True,There is a note.,1,,,1,,There is a circle.,,4656,undefined,exh-subclausal,1,"[4, 6, 8]",11.02615,983,"[0, 0, 0]","[0, 1]"
"[2, 3, 6]",0,Some of the symbols are hearts.,"[0, 1]",filler,1,,1,2,"[2, 0, 4]",4,"[0, 0, 0]",True,True,True,Some but not all of the symbols are ticks.,1,,,1,,Some but not all of the symbols are ticks.,,5592,undefined,exh-subclausal,1,"[4, 2, 6]",11.02615,1751,"[0, 0, 0]","[0, 1]"
"[10, 1, 9]",2,There is a spade.,"[0, 1]",response,1,,0,3,"[7, 7, 0]",4,"[3, 0, 0]",False,False,False,7 + 0 = ?,0,,,0,,1 + 9 = ?,,3746,undefined,exh-subclausal,1,"[3, 9, 1]",11.02615,977,"[8, 0, 0]","[1, 0]"
"[0, 3, 9]",0,Some of the symbols are stars.,"[1, 0]",filler,1,,1,1,"[3, 6, 8]",4,"[0, 0, 0]",True,True,True,Some of the symbols are spades.,0,,,1,,Some of the symbols are diamonds.,,5142,undefined,exh-subclausal,0,"[6, 4, 1]",11.02615,1391,"[0, 0, 0]","[0, 1]"
"[6, 0, 6]",0,Some of the symbols are spades.,"[1, 0]",filler,0,,1,3,"[16, 7, 9]",4,"[3, 0, 0]",False,False,False,7 + 9 = ?,1,,,1,,0 + 6 = ?,,4697,undefined,exh-subclausal,0,"[3, 9, 2]",11.02615,1511,"[1, 0, 0]","[0, 1]"
"[11, 8, 3]",1,There are four triangles.,"[1, 0]",response,0,,1,3,"[11, 9, 2]",4,"[0, 0, 0]",False,False,False,9 + 2 = ?,1,,,1,,8 + 3 = ?,,5416,undefined,exh-subclausal,0,"[9, 6, 2]",11.02615,1495,"[9, 0, 0]","[0, 1]"
"[3, 7, 5]",1,There are four clubs.,"[0, 1]",filler,1,,1,2,"[2, 3, 1]",4,"[0, 0, 0]",True,True,True,There are four but no more than four ticks.,1,,,1,,There are four but no more than four spades.,,5760,undefined,exh-subclausal,1,"[1, 3, 0]",11.02615,1559,"[0, 0, 0]","[0, 1]"
"[13, 4, 9]",1,There are four hearts.,"[0, 1]",filler,0,,1,3,"[13, 9, 4]",4,"[7, 0, 0]",False,True,False,9 + 4 = ?,1,,,1,,4 + 9 = ?,,3880,undefined,exh-subclausal,1,"[4, 5, 7]",11.02615,815,"[7, 0, 0]","[0, 1]"
"[1, 2, 0]",2,There is a spade.,"[0, 1]",response,1,,1,0,"[7, 4, 1]",4,"[0, 0, 0]",True,True,True,There is a circle.,1,,,0,,There is a club.,,2752,undefined,exh-subclausal,1,"[3, 4, 5]",11.02615,1063,"[0, 0, 0]","[0, 1]"
"[9, 8, 1]",2,There is a spade.,"[0, 1]",filler,1,,1,1,"[0, 2, 7]",4,"[0, 0, 0]",True,True,True,There is a diamond.,1,,,1,,There is a triangle.,,5960,undefined,exh-subclausal,1,"[3, 4, 2]",11.02615,4535,"[0, 0, 0]","[0, 1]"
"[3, 5, 6]",2,There is a heart.,"[1, 0]",filler,1,,1,0,"[3, 1, 7]",4,"[0, 0, 0]",True,True,True,There is a spade.,0,,,1,,There is a spade.,,14223,undefined,exh-subclausal,0,"[4, 9, 2]",11.02615,879,"[0, 0, 0]","[0, 1]"
"[8, 1, 7]",0,Some of the symbols are triangles.,"[0, 1]",filler,0,,1,3,"[11, 9, 2]",4,"[7, 0, 0]",False,True,False,9 + 2 = ?,1,,,1,,1 + 7 = ?,,2920,undefined,exh-subclausal,1,"[9, 8, 1]",11.02615,967,"[3, 0, 0]","[0, 1]"
