block_rt,workerid,pOSentence,pTwrongAnswer,primeType,primeTShuffle,Answer.condition,slide_type,pTChoice,correctPOChoice,btwncondition,correctPTChoice,trial_type,Answer.time_in_minutes,pTSentence,pOSymbols,audio,pOChoice,slide_number,correctPChoices,responseSymbols,response_rt,goodPOChoice,response,primeOShuffle,image,responseSentence,primeStrength,goodPTChoice,pOwrongAnswer,pTSymbols,responseChoice
,0,,,,,undefined,bot_check,,,,,,14.6255,,,,,1,,,,,"[0, 'Susan']",,Susan,,,,,,
6643,0,There are four circles.,"[0, 0, 0]",1,"[0, 1]",undefined,,1,True,exh-subclausal,True,filler,14.6255,There are four triangles.,"[7, 2, 8]",,0,,True,"[8, 3, 2]",2095,0,,"[1, 0]",,There are four notes.,1,1,"[0, 0, 0]","[9, 7, 4]",1
9545,0,Some of the symbols are notes.,"[0, 0, 0]",0,"[0, 1]",undefined,,1,True,exh-subclausal,True,response,14.6255,Some of the symbols are stars.,"[8, 5, 2]",,1,,True,"[1, 7, 0]",2152,1,,"[0, 1]",,Some of the symbols are clubs.,1,1,"[0, 0, 0]","[6, 1, 8]",1
6496,0,There is a note.,"[0, 0, 0]",2,"[1, 0]",undefined,,0,True,exh-subclausal,True,response,14.6255,There is a triangle.,"[8, 5, 1]",,1,,True,"[9, 0, 7]",2734,1,,"[0, 1]",,There is a triangle.,1,0,"[0, 0, 0]","[9, 2, 0]",1
10297,0,There are four but no more than four notes.,"[0, 0, 0]",1,"[0, 1]",undefined,,1,True,exh-subclausal,True,filler,14.6255,There are four but no more than four clubs.,"[8, 6, 4]",,0,,True,"[8, 3, 5]",1630,0,,"[1, 0]",,There are four notes.,2,1,"[0, 0, 0]","[1, 4, 5]",1
8072,0,5 + 0 = ?,"[7, 0, 0]",2,"[0, 1]",undefined,,0,False,exh-subclausal,False,filler,14.6255,3 + 8 = ?,"[5, 5, 0]",,1,,False,"[9, 6, 5]",1822,0,,"[1, 0]",,There is a triangle.,3,1,"[8, 0, 0]","[11, 3, 8]",1
7521,0,There are four notes.,"[0, 0, 0]",1,"[0, 1]",undefined,,1,True,exh-subclausal,True,filler,14.6255,There are four hearts.,"[8, 7, 6]",,0,,True,"[7, 5, 0]",1815,0,,"[1, 0]",,There are four circles.,0,1,"[0, 0, 0]","[4, 6, 9]",1
23620,0,Some of the symbols are stars.,"[0, 0, 0]",0,"[1, 0]",undefined,,0,True,exh-subclausal,True,response,14.6255,Some of the symbols are ticks.,"[6, 2, 0]",,1,,True,"[7, 6, 0]",2415,1,,"[0, 1]",,Some of the symbols are circles.,0,0,"[0, 0, 0]","[2, 0, 8]",0
8289,0,There is a diamond but nothing else.,"[0, 0, 0]",2,"[0, 1]",undefined,,1,True,exh-subclausal,True,response,14.6255,There is a club but nothing else.,"[0, 3, 8]",,0,,True,"[4, 5, 8]",2688,0,,"[1, 0]",,There is a heart.,2,1,"[0, 0, 0]","[1, 5, 9]",1
14224,0,There is a star.,"[0, 0, 0]",2,"[1, 0]",undefined,,0,True,exh-subclausal,True,filler,14.6255,There is a tick.,"[6, 5, 4]",,1,,True,"[9, 4, 7]",2238,1,,"[0, 1]",,There is a triangle.,1,0,"[0, 0, 0]","[2, 1, 9]",1
6473,0,There is a tick.,"[0, 0, 0]",2,"[1, 0]",undefined,,0,True,exh-subclausal,True,filler,14.6255,There is a tick.,"[2, 5, 4]",,0,,True,"[1, 8, 4]",2127,0,,"[1, 0]",,There is a club.,1,0,"[0, 0, 0]","[2, 0, 5]",1
7656,0,There are four circles.,"[0, 0, 0]",1,"[1, 0]",undefined,,0,True,exh-subclausal,True,filler,14.6255,There are four spades.,"[7, 0, 8]",,0,,True,"[8, 7, 3]",2223,0,,"[1, 0]",,There are four notes.,0,0,"[0, 0, 0]","[3, 0, 6]",1
6377,0,7 + 0 = ?,"[9, 0, 0]",1,"[1, 0]",undefined,,0,True,exh-subclausal,True,filler,14.6255,2 + 9 = ?,"[7, 7, 0]",,1,,True,"[8, 2, 1]",2584,1,,"[0, 1]",,There are four notes.,3,0,"[2, 0, 0]","[11, 2, 9]",1
5720,0,There are four but no more than four clubs.,"[0, 0, 0]",1,"[0, 1]",undefined,,1,True,exh-subclausal,True,filler,14.6255,There are four but no more than four circles.,"[1, 7, 3]",,1,,True,"[8, 0, 2]",1223,1,,"[0, 1]",,There are four notes.,2,1,"[0, 0, 0]","[7, 1, 8]",1
3920,0,There are four clubs.,"[0, 0, 0]",1,"[0, 1]",undefined,,1,True,exh-subclausal,True,filler,14.6255,There are four hearts.,"[1, 2, 6]",,0,,True,"[9, 8, 2]",1135,0,,"[1, 0]",,There are four triangles.,1,1,"[0, 0, 0]","[4, 1, 2]",1
4749,0,There is a spade.,"[0, 0, 0]",2,"[1, 0]",undefined,,0,True,exh-subclausal,True,response,14.6255,There is a diamond.,"[3, 9, 1]",,1,,True,"[8, 5, 7]",1239,1,,"[0, 1]",,There is a note.,1,0,"[0, 0, 0]","[0, 9, 2]",1
21938,0,There is a tick.,"[0, 0, 0]",2,"[1, 0]",undefined,,0,True,exh-subclausal,True,response,14.6255,There is a square.,"[2, 5, 7]",,1,,True,"[8, 2, 1]",10224,1,,"[0, 1]",,There is a note.,0,0,"[0, 0, 0]","[5, 0, 8]",1
6808,0,4 + 8 = ?,"[7, 0, 0]",0,"[1, 0]",undefined,,1,True,exh-subclausal,False,response,14.6255,1 + 1 = ?,"[12, 4, 8]",,0,,False,"[1, 6, 2]",3382,0,,"[1, 0]",,Some of the symbols are clubs.,3,0,"[9, 0, 0]","[2, 1, 1]",1
4904,0,3 + 1 = ?,"[2, 0, 0]",2,"[1, 0]",undefined,,0,True,exh-subclausal,True,response,14.6255,6 + 6 = ?,"[4, 3, 1]",,1,,True,"[0, 1, 8]",2255,1,,"[0, 1]",,There is a diamond.,3,0,"[8, 0, 0]","[12, 6, 6]",1
4897,0,There are four squares.,"[0, 0, 0]",1,"[1, 0]",undefined,,0,True,exh-subclausal,True,response,14.6255,There are four squares.,"[5, 9, 2]",,0,,True,"[3, 8, 5]",1448,0,,"[1, 0]",,There are four spades.,0,0,"[0, 0, 0]","[5, 4, 8]",0
8871,0,Some of the symbols are ticks.,"[0, 0, 0]",0,"[0, 1]",undefined,,1,True,exh-subclausal,True,filler,14.6255,Some of the symbols are triangles.,"[2, 0, 5]",,0,,True,"[5, 3, 0]",3686,0,,"[1, 0]",,Some of the symbols are squares.,0,1,"[0, 0, 0]","[9, 8, 2]",1
4281,0,There are four circles.,"[0, 0, 0]",1,"[1, 0]",undefined,,0,True,exh-subclausal,True,response,14.6255,There are four squares.,"[7, 8, 0]",,1,,True,"[4, 8, 0]",1183,1,,"[0, 1]",,There are four hearts.,0,0,"[0, 0, 0]","[5, 3, 7]",0
5524,0,9 + 9 = ?,"[5, 0, 0]",0,"[0, 1]",undefined,,1,True,exh-subclausal,True,response,14.6255,6 + 0 = ?,"[18, 9, 9]",,0,,True,"[7, 9, 3]",2686,0,,"[1, 0]",,Some of the symbols are circles.,3,1,"[7, 0, 0]","[6, 6, 0]",0
6384,0,Some of the symbols are ticks.,"[0, 0, 0]",0,"[1, 0]",undefined,,0,True,exh-subclausal,True,response,14.6255,Some of the symbols are stars.,"[2, 7, 3]",,0,,True,"[0, 4, 2]",1766,0,,"[1, 0]",,Some of the symbols are diamonds.,1,0,"[0, 0, 0]","[6, 5, 7]",0
9088,0,There are four notes.,"[0, 0, 0]",1,"[0, 1]",undefined,,1,True,exh-subclausal,True,filler,14.6255,There are four notes.,"[8, 0, 9]",,1,,True,"[3, 1, 7]",2959,1,,"[0, 1]",,There are four spades.,1,1,"[0, 0, 0]","[8, 2, 4]",1
22385,0,There are four but no more than four squares.,"[0, 0, 0]",1,"[1, 0]",undefined,,0,True,exh-subclausal,True,filler,14.6255,There are four but no more than four ticks.,"[5, 3, 4]",,0,,True,"[5, 1, 0]",5256,0,,"[1, 0]",,There are four squares.,2,0,"[0, 0, 0]","[2, 8, 6]",1
26286,0,Some but not all of the symbols are squares.,"[0, 0, 0]",0,"[0, 1]",undefined,,1,True,exh-subclausal,True,response,14.6255,Some but not all of the symbols are circles.,"[5, 7, 3]",,1,,True,"[8, 4, 2]",12316,1,,"[0, 1]",,Some of the symbols are notes.,2,1,"[0, 0, 0]","[7, 8, 1]",0
8489,0,There is a circle but nothing else.,"[0, 0, 0]",2,"[1, 0]",undefined,,0,True,exh-subclausal,True,filler,14.6255,There is a star but nothing else.,"[7, 2, 9]",,0,,True,"[1, 4, 9]",2231,0,,"[1, 0]",,There is a club.,2,0,"[0, 0, 0]","[6, 1, 2]",1
4352,0,3 + 5 = ?,"[8, 0, 0]",2,"[1, 0]",undefined,,1,False,exh-subclausal,False,response,14.6255,2 + 8 = ?,"[8, 3, 5]",,0,,False,"[0, 6, 5]",1231,1,,"[0, 1]",,There is a diamond.,3,0,"[4, 0, 0]","[10, 2, 8]",1
5095,0,4 + 3 = ?,"[3, 0, 0]",1,"[0, 1]",undefined,,0,True,exh-subclausal,False,filler,14.6255,6 + 9 = ?,"[7, 4, 3]",,1,,False,"[8, 7, 0]",1598,1,,"[0, 1]",,There are four notes.,3,1,"[8, 0, 0]","[15, 6, 9]",1
10042,0,Some of the symbols are clubs.,"[0, 0, 0]",0,"[0, 1]",undefined,,1,True,exh-subclausal,True,response,14.6255,Some of the symbols are ticks.,"[1, 6, 5]",,1,,True,"[2, 4, 0]",2223,1,,"[0, 1]",,Some of the symbols are ticks.,1,1,"[0, 0, 0]","[2, 9, 1]",0
16408,0,Some but not all of the symbols are clubs.,"[0, 0, 0]",0,"[1, 0]",undefined,,0,True,exh-subclausal,True,filler,14.6255,Some but not all of the symbols are hearts.,"[1, 0, 3]",,1,,True,"[8, 0, 7]",8432,1,,"[0, 1]",,Some of the symbols are notes.,2,0,"[0, 0, 0]","[4, 8, 7]",1
5632,0,There is a diamond but nothing else.,"[0, 0, 0]",2,"[0, 1]",undefined,,1,True,exh-subclausal,True,filler,14.6255,There is a circle but nothing else.,"[0, 8, 3]",,1,,True,"[2, 6, 0]",1560,1,,"[0, 1]",,There is a tick.,2,1,"[0, 0, 0]","[7, 9, 1]",1
5248,0,0 + 5 = ?,"[9, 0, 0]",2,"[1, 0]",undefined,,0,True,exh-subclausal,True,filler,14.6255,9 + 1 = ?,"[5, 0, 5]",,1,,True,"[4, 6, 0]",2446,1,,"[0, 1]",,There is a heart.,3,0,"[4, 0, 0]","[10, 9, 1]",1
16957,0,There is a heart but nothing else.,"[0, 0, 0]",2,"[1, 0]",undefined,,0,True,exh-subclausal,True,filler,14.6255,There is a spade but nothing else.,"[4, 6, 1]",,0,,True,"[4, 5, 0]",3447,0,,"[1, 0]",,There is a heart.,2,0,"[0, 0, 0]","[3, 4, 2]",1
6921,0,There is a triangle.,"[0, 0, 0]",2,"[0, 1]",undefined,,1,True,exh-subclausal,True,response,14.6255,There is a heart.,"[9, 0, 6]",,1,,True,"[2, 5, 3]",1687,1,,"[0, 1]",,There is a tick.,0,1,"[0, 0, 0]","[4, 0, 9]",0
5940,0,There is a circle.,"[0, 0, 0]",2,"[0, 1]",undefined,,1,True,exh-subclausal,True,response,14.6255,There is a note.,"[7, 1, 9]",,1,,True,"[0, 9, 5]",1763,1,,"[0, 1]",,There is a diamond.,0,1,"[0, 0, 0]","[8, 3, 6]",0
7445,0,Some of the symbols are spades.,"[0, 0, 0]",0,"[0, 1]",undefined,,1,True,exh-subclausal,True,response,14.6255,Some of the symbols are hearts.,"[3, 0, 4]",,0,,True,"[6, 7, 4]",1968,0,,"[1, 0]",,Some of the symbols are stars.,0,1,"[0, 0, 0]","[4, 1, 3]",0
5746,0,There is a star.,"[0, 0, 0]",2,"[0, 1]",undefined,,1,True,exh-subclausal,True,response,14.6255,There is a diamond.,"[6, 2, 3]",,1,,True,"[0, 5, 6]",1952,1,,"[0, 1]",,There is a diamond.,1,1,"[0, 0, 0]","[0, 5, 4]",0
5414,0,4 + 6 = ?,"[7, 0, 0]",2,"[1, 0]",undefined,,0,True,exh-subclausal,True,response,14.6255,3 + 6 = ?,"[10, 4, 6]",,1,,True,"[8, 6, 7]",1511,1,,"[0, 1]",,There is a note.,3,0,"[2, 0, 0]","[9, 3, 6]",0
9968,0,There are four spades.,"[0, 0, 0]",1,"[1, 0]",undefined,,0,True,exh-subclausal,True,response,14.6255,There are four spades.,"[3, 7, 4]",,1,,True,"[2, 1, 4]",4903,1,,"[0, 1]",,There are four ticks.,1,0,"[0, 0, 0]","[3, 4, 6]",0
7336,0,Some of the symbols are circles.,"[0, 0, 0]",0,"[0, 1]",undefined,,1,True,exh-subclausal,True,response,14.6255,Some of the symbols are triangles.,"[7, 2, 3]",,0,,True,"[9, 0, 3]",2023,0,,"[1, 0]",,Some of the symbols are triangles.,0,1,"[0, 0, 0]","[9, 4, 5]",0
11691,0,There is a spade.,"[0, 0, 0]",2,"[1, 0]",undefined,,0,True,exh-subclausal,True,filler,14.6255,There is a tick.,"[3, 2, 9]",,0,,True,"[5, 8, 0]",3812,0,,"[1, 0]",,There is a square.,0,0,"[0, 0, 0]","[2, 1, 9]",1
6724,0,0 + 6 = ?,"[1, 0, 0]",0,"[0, 1]",undefined,,0,False,exh-subclausal,False,response,14.6255,7 + 5 = ?,"[6, 0, 6]",,1,,False,"[8, 5, 0]",3449,0,,"[1, 0]",,Some of the symbols are notes.,3,1,"[0, 0, 0]","[12, 7, 5]",0
10144,0,Some of the symbols are clubs.,"[0, 0, 0]",0,"[1, 0]",undefined,,0,True,exh-subclausal,True,filler,14.6255,Some of the symbols are ticks.,"[1, 9, 3]",,0,,True,"[3, 5, 1]",2239,0,,"[1, 0]",,Some of the symbols are spades.,0,0,"[0, 0, 0]","[2, 9, 5]",1
5425,0,Some of the symbols are triangles.,"[0, 0, 0]",0,"[1, 0]",undefined,,0,True,exh-subclausal,True,response,14.6255,Some of the symbols are notes.,"[9, 7, 1]",,1,,True,"[5, 8, 3]",1873,1,,"[0, 1]",,Some of the symbols are squares.,0,0,"[0, 0, 0]","[8, 4, 5]",0
8391,0,There is a square but nothing else.,"[0, 0, 0]",2,"[0, 1]",undefined,,1,True,exh-subclausal,True,response,14.6255,There is a spade but nothing else.,"[5, 8, 1]",,0,,True,"[1, 4, 0]",2952,0,,"[1, 0]",,There is a club.,2,1,"[0, 0, 0]","[3, 4, 0]",0
5248,0,There is a circle.,"[0, 0, 0]",2,"[1, 0]",undefined,,0,True,exh-subclausal,True,filler,14.6255,There is a tick.,"[7, 3, 1]",,1,,True,"[8, 3, 7]",2335,1,,"[0, 1]",,There is a note.,0,0,"[0, 0, 0]","[2, 9, 7]",1
5936,0,There is a spade.,"[0, 0, 0]",2,"[1, 0]",undefined,,0,True,exh-subclausal,True,filler,14.6255,There is a star.,"[3, 9, 2]",,0,,True,"[6, 9, 1]",2259,0,,"[1, 0]",,There is a star.,1,0,"[0, 0, 0]","[6, 9, 5]",1
4929,0,0 + 4 = ?,"[3, 0, 0]",0,"[0, 1]",undefined,,1,True,exh-subclausal,True,filler,14.6255,2 + 9 = ?,"[4, 0, 4]",,0,,True,"[4, 5, 9]",2416,0,,"[1, 0]",,Some of the symbols are hearts.,3,1,"[2, 0, 0]","[11, 2, 9]",1
5296,0,6 + 5 = ?,"[0, 0, 0]",1,"[1, 0]",undefined,,0,False,exh-subclausal,True,filler,14.6255,5 + 3 = ?,"[11, 6, 5]",,1,,False,"[2, 4, 9]",1727,0,,"[1, 0]",,There are four ticks.,3,0,"[2, 0, 0]","[8, 5, 3]",1
8749,0,Some but not all of the symbols are hearts.,"[0, 0, 0]",0,"[1, 0]",undefined,,0,True,exh-subclausal,True,response,14.6255,Some but not all of the symbols are stars.,"[4, 5, 7]",,0,,True,"[2, 6, 8]",2030,0,,"[1, 0]",,Some of the symbols are ticks.,2,0,"[0, 0, 0]","[6, 7, 9]",0
4769,0,Some of the symbols are ticks.,"[0, 0, 0]",0,"[0, 1]",undefined,,0,True,exh-subclausal,False,filler,14.6255,Some of the symbols are hearts.,"[2, 3, 0]",,0,,False,"[4, 2, 8]",1261,0,,"[1, 0]",,Some of the symbols are hearts.,1,1,"[0, 0, 0]","[4, 6, 2]",0
6168,0,Some of the symbols are circles.,"[0, 0, 0]",0,"[1, 0]",undefined,,0,True,exh-subclausal,True,filler,14.6255,Some of the symbols are diamonds.,"[7, 2, 5]",,0,,True,"[2, 8, 0]",1782,0,,"[1, 0]",,Some of the symbols are ticks.,0,0,"[0, 0, 0]","[0, 9, 5]",1
3879,0,9 + 0 = ?,"[2, 0, 0]",0,"[1, 0]",undefined,,1,False,exh-subclausal,False,filler,14.6255,0 + 6 = ?,"[9, 9, 0]",,0,,False,"[8, 5, 7]",1614,1,,"[0, 1]",,Some of the symbols are notes.,3,0,"[8, 0, 0]","[6, 0, 6]",1
3971,0,0 + 1 = ?,"[7, 0, 0]",0,"[0, 1]",undefined,,1,True,exh-subclausal,True,response,14.6255,2 + 0 = ?,"[1, 0, 1]",,0,,True,"[7, 6, 0]",1961,0,,"[1, 0]",,Some of the symbols are circles.,3,1,"[4, 0, 0]","[2, 2, 0]",0
6390,0,There are four but no more than four circles.,"[0, 0, 0]",1,"[0, 1]",undefined,,1,True,exh-subclausal,True,response,14.6255,There are four but no more than four ticks.,"[7, 6, 4]",,0,,True,"[3, 7, 6]",2614,0,,"[1, 0]",,There are four spades.,2,1,"[0, 0, 0]","[2, 4, 1]",0
5304,0,There are four but no more than four notes.,"[0, 0, 0]",1,"[0, 1]",undefined,,1,True,exh-subclausal,True,response,14.6255,There are four but no more than four stars.,"[8, 0, 5]",,1,,True,"[5, 9, 2]",2143,1,,"[0, 1]",,There are four squares.,2,1,"[0, 0, 0]","[6, 0, 1]",0
9890,0,Some of the symbols are hearts.,"[0, 0, 0]",0,"[0, 1]",undefined,,0,False,exh-subclausal,False,filler,14.6255,Some of the symbols are spades.,"[4, 7, 9]",,1,,False,"[7, 3, 9]",4072,0,,"[1, 0]",,Some of the symbols are circles.,1,1,"[0, 0, 0]","[3, 9, 5]",1
9160,0,There are four but no more than four hearts.,"[0, 0, 0]",1,"[0, 1]",undefined,,1,True,exh-subclausal,True,filler,14.6255,There are four but no more than four clubs.,"[4, 8, 9]",,0,,True,"[7, 2, 6]",1943,0,,"[1, 0]",,There are four circles.,2,1,"[0, 0, 0]","[1, 0, 4]",1
5848,0,There are four stars.,"[0, 0, 0]",1,"[0, 1]",undefined,,1,True,exh-subclausal,True,response,14.6255,There are four hearts.,"[6, 4, 8]",,0,,True,"[7, 5, 4]",2559,0,,"[1, 0]",,There are four circles.,0,1,"[0, 0, 0]","[4, 1, 7]",0
4782,0,0 + 0 = ?,"[7, 0, 0]",2,"[0, 1]",undefined,,1,False,exh-subclausal,True,filler,14.6255,3 + 5 = ?,"[0, 0, 0]",,0,,False,"[7, 0, 2]",1544,1,,"[0, 1]",,There is a circle.,3,1,"[8, 0, 0]","[8, 3, 5]",1
7415,0,7 + 2 = ?,"[0, 0, 0]",1,"[0, 1]",undefined,,1,False,exh-subclausal,True,response,14.6255,7 + 7 = ?,"[9, 7, 2]",,0,,False,"[1, 2, 9]",3599,1,,"[0, 1]",,There are four clubs.,3,1,"[5, 0, 0]","[14, 7, 7]",0
5379,0,There are four squares.,"[0, 0, 0]",1,"[1, 0]",undefined,,0,True,exh-subclausal,True,response,14.6255,There are four clubs.,"[5, 2, 0]",,0,,True,"[7, 6, 4]",2018,0,,"[1, 0]",,There are four circles.,1,0,"[0, 0, 0]","[1, 9, 3]",0
6422,0,9 + 9 = ?,"[2, 0, 0]",1,"[0, 1]",undefined,,1,True,exh-subclausal,True,response,14.6255,6 + 5 = ?,"[18, 9, 9]",,0,,True,"[0, 4, 3]",2911,0,,"[1, 0]",,There are four diamonds.,3,1,"[5, 0, 0]","[11, 6, 5]",0
3752,0,1 + 8 = ?,"[8, 0, 0]",1,"[0, 1]",undefined,,0,True,exh-subclausal,False,response,14.6255,6 + 6 = ?,"[9, 1, 8]",,1,,False,"[5, 7, 9]",1382,1,,"[0, 1]",,There are four squares.,3,1,"[0, 0, 0]","[12, 6, 6]",0
3912,0,There are four diamonds.,"[0, 0, 0]",1,"[0, 1]",undefined,,1,True,exh-subclausal,True,response,14.6255,There are four hearts.,"[0, 8, 7]",,1,,True,"[1, 7, 2]",1167,1,,"[0, 1]",,There are four clubs.,1,1,"[0, 0, 0]","[4, 0, 1]",0
5009,0,There is a star but nothing else.,"[0, 0, 0]",2,"[1, 0]",undefined,,0,True,exh-subclausal,True,response,14.6255,There is a star but nothing else.,"[6, 7, 4]",,0,,True,"[5, 3, 7]",2688,0,,"[1, 0]",,There is a square.,2,0,"[0, 0, 0]","[6, 1, 0]",0
8951,0,0 + 7 = ?,"[2, 0, 0]",1,"[0, 1]",undefined,,0,True,exh-subclausal,False,filler,14.6255,2 + 0 = ?,"[7, 0, 7]",,1,,False,"[2, 1, 5]",2271,1,,"[0, 1]",,There are four ticks.,3,1,"[9, 0, 0]","[2, 2, 0]",1
4296,0,6 + 4 = ?,"[7, 0, 0]",1,"[1, 0]",undefined,,1,True,exh-subclausal,False,response,14.6255,6 + 6 = ?,"[10, 6, 4]",,0,,False,"[4, 0, 7]",2072,0,,"[1, 0]",,There are four hearts.,3,0,"[3, 0, 0]","[12, 6, 6]",0
21543,0,There are four but no more than four ticks.,"[0, 0, 0]",1,"[1, 0]",undefined,,0,True,exh-subclausal,True,response,14.6255,There are four but no more than four squares.,"[2, 9, 8]",,0,,True,"[5, 9, 0]",2975,0,,"[1, 0]",,There are four squares.,2,0,"[0, 0, 0]","[5, 6, 0]",0
4511,0,5 + 7 = ?,"[4, 0, 0]",2,"[1, 0]",undefined,,1,True,exh-subclausal,False,response,14.6255,5 + 7 = ?,"[12, 5, 7]",,0,,False,"[3, 5, 9]",1998,0,,"[1, 0]",,There is a spade.,3,0,"[8, 0, 0]","[12, 5, 7]",1
4223,0,There is a star.,"[0, 0, 0]",2,"[1, 0]",undefined,,0,True,exh-subclausal,True,response,14.6255,There is a square.,"[6, 0, 7]",,1,,True,"[6, 3, 4]",1558,1,,"[0, 1]",,There is a star.,0,0,"[0, 0, 0]","[5, 0, 2]",0
3745,0,6 + 1 = ?,"[4, 0, 0]",2,"[0, 1]",undefined,,0,False,exh-subclausal,False,filler,14.6255,6 + 3 = ?,"[7, 6, 1]",,1,,False,"[1, 9, 8]",1408,0,,"[1, 0]",,There is a club.,3,1,"[6, 0, 0]","[9, 6, 3]",1
10383,0,There is a club.,"[0, 0, 0]",2,"[1, 0]",undefined,,0,True,exh-subclausal,True,filler,14.6255,There is a triangle.,"[1, 7, 3]",,0,,True,"[7, 4, 2]",4139,0,,"[1, 0]",,There is a circle.,0,0,"[0, 0, 0]","[9, 6, 2]",1
4399,0,There are four but no more than four ticks.,"[0, 0, 0]",1,"[0, 1]",undefined,,1,True,exh-subclausal,True,response,14.6255,There are four but no more than four diamonds.,"[2, 4, 0]",,1,,True,"[3, 2, 7]",1406,1,,"[0, 1]",,There are four spades.,2,1,"[0, 0, 0]","[0, 2, 1]",0
8785,0,There is a club but nothing else.,"[0, 0, 0]",2,"[1, 0]",undefined,,0,True,exh-subclausal,True,response,14.6255,There is a circle but nothing else.,"[1, 3, 9]",,1,,True,"[1, 3, 6]",3504,1,,"[0, 1]",,There is a club.,2,0,"[0, 0, 0]","[7, 3, 0]",0
6968,0,Some but not all of the symbols are clubs.,"[0, 0, 0]",0,"[1, 0]",undefined,,1,False,exh-subclausal,False,filler,14.6255,Some but not all of the symbols are triangles.,"[1, 9, 2]",,0,,False,"[6, 1, 0]",1406,1,,"[0, 1]",,Some of the symbols are stars.,2,0,"[0, 0, 0]","[9, 6, 2]",0
4592,0,There are four ticks.,"[0, 0, 0]",1,"[0, 1]",undefined,,1,True,exh-subclausal,True,filler,14.6255,There are four circles.,"[2, 0, 7]",,1,,True,"[4, 2, 1]",2063,1,,"[0, 1]",,There are four hearts.,0,1,"[0, 0, 0]","[7, 6, 1]",1
4601,0,Some but not all of the symbols are squares.,"[0, 0, 0]",0,"[0, 1]",undefined,,1,False,exh-subclausal,True,response,14.6255,Some but not all of the symbols are squares.,"[5, 6, 2]",,1,,False,"[0, 8, 1]",1863,0,,"[1, 0]",,Some of the symbols are diamonds.,2,1,"[0, 0, 0]","[5, 0, 2]",0
6796,0,Some but not all of the symbols are triangles.,"[0, 0, 0]",0,"[0, 1]",undefined,,0,False,exh-subclausal,False,filler,14.6255,Some but not all of the symbols are ticks.,"[9, 6, 7]",,1,,False,"[2, 8, 0]",4203,0,,"[1, 0]",,Some of the symbols are ticks.,2,1,"[0, 0, 0]","[2, 4, 8]",1
6000,0,There is a club.,"[0, 0, 0]",2,"[0, 1]",undefined,,1,True,exh-subclausal,True,response,14.6255,There is a circle.,"[1, 7, 6]",,0,,True,"[2, 1, 7]",1207,0,,"[1, 0]",,There is a tick.,1,1,"[0, 0, 0]","[7, 8, 1]",0
4384,0,0 + 1 = ?,"[5, 0, 0]",0,"[1, 0]",undefined,,0,False,exh-subclausal,True,filler,14.6255,4 + 5 = ?,"[1, 0, 1]",,1,,False,"[1, 3, 0]",2208,0,,"[1, 0]",,Some of the symbols are clubs.,3,0,"[2, 0, 0]","[9, 4, 5]",0
5073,0,There is a heart but nothing else.,"[0, 0, 0]",2,"[1, 0]",undefined,,0,True,exh-subclausal,True,filler,14.6255,There is a club but nothing else.,"[4, 9, 3]",,1,,True,"[3, 2, 7]",1470,1,,"[0, 1]",,There is a spade.,2,0,"[0, 0, 0]","[1, 0, 9]",1
5263,0,9 + 9 = ?,"[8, 0, 0]",0,"[1, 0]",undefined,,0,True,exh-subclausal,True,filler,14.6255,3 + 4 = ?,"[18, 9, 9]",,1,,True,"[3, 9, 6]",2502,1,,"[0, 1]",,Some of the symbols are spades.,3,0,"[3, 0, 0]","[7, 3, 4]",1
6265,0,There is a diamond.,"[0, 0, 0]",2,"[0, 1]",undefined,,1,True,exh-subclausal,True,filler,14.6255,There is a diamond.,"[0, 7, 5]",,1,,True,"[6, 4, 0]",1351,1,,"[0, 1]",,There is a star.,0,1,"[0, 0, 0]","[0, 2, 3]",1
4791,0,Some of the symbols are ticks.,"[0, 0, 0]",0,"[0, 1]",undefined,,1,True,exh-subclausal,True,response,14.6255,Some of the symbols are circles.,"[2, 6, 3]",,1,,True,"[5, 1, 2]",1751,1,,"[0, 1]",,Some of the symbols are squares.,1,1,"[0, 0, 0]","[7, 8, 5]",0
4743,0,There are four triangles.,"[0, 0, 0]",1,"[0, 1]",undefined,,1,True,exh-subclausal,True,filler,14.6255,There are four ticks.,"[9, 0, 6]",,1,,True,"[9, 3, 2]",1695,1,,"[0, 1]",,There are four triangles.,1,1,"[0, 0, 0]","[2, 9, 0]",1
5849,0,Some of the symbols are spades.,"[0, 0, 0]",0,"[0, 1]",undefined,,1,True,exh-subclausal,True,filler,14.6255,Some of the symbols are ticks.,"[3, 4, 6]",,1,,True,"[5, 2, 4]",1638,1,,"[0, 1]",,Some of the symbols are squares.,0,1,"[0, 0, 0]","[2, 8, 4]",1
5648,0,Some of the symbols are notes.,"[0, 0, 0]",0,"[1, 0]",undefined,,1,True,exh-subclausal,False,filler,14.6255,Some of the symbols are hearts.,"[8, 5, 2]",,1,,False,"[3, 6, 2]",2294,1,,"[0, 1]",,Some of the symbols are spades.,1,0,"[0, 0, 0]","[4, 5, 8]",1
9608,0,Some but not all of the symbols are clubs.,"[0, 0, 0]",0,"[1, 0]",undefined,,0,False,exh-subclausal,True,response,14.6255,Some but not all of the symbols are diamonds.,"[1, 8, 2]",,1,,False,"[4, 2, 0]",2767,0,,"[1, 0]",,Some of the symbols are hearts.,2,0,"[0, 0, 0]","[0, 4, 3]",0
5375,0,There are four clubs.,"[0, 0, 0]",1,"[1, 0]",undefined,,0,True,exh-subclausal,True,response,14.6255,There are four diamonds.,"[1, 4, 3]",,0,,True,"[8, 3, 1]",1849,0,,"[1, 0]",,There are four notes.,1,0,"[0, 0, 0]","[0, 7, 1]",0
4616,0,There are four ticks.,"[0, 0, 0]",1,"[1, 0]",undefined,,0,True,exh-subclausal,True,filler,14.6255,There are four notes.,"[2, 4, 8]",,1,,True,"[9, 6, 3]",1901,1,,"[0, 1]",,There are four triangles.,0,0,"[0, 0, 0]","[8, 6, 4]",1
5592,0,Some but not all of the symbols are circles.,"[0, 0, 0]",0,"[0, 1]",undefined,,1,True,exh-subclausal,True,filler,14.6255,Some but not all of the symbols are triangles.,"[7, 3, 9]",,1,,True,"[9, 4, 1]",1911,1,,"[0, 1]",,Some of the symbols are triangles.,2,1,"[0, 0, 0]","[9, 5, 8]",0
4200,0,There are four stars.,"[0, 0, 0]",1,"[1, 0]",undefined,,0,True,exh-subclausal,True,response,14.6255,There are four spades.,"[6, 1, 7]",,0,,True,"[2, 8, 7]",1055,0,,"[1, 0]",,There are four ticks.,0,0,"[0, 0, 0]","[3, 7, 6]",0
9009,0,Some of the symbols are ticks.,"[0, 0, 0]",0,"[0, 1]",undefined,,0,False,exh-subclausal,False,filler,14.6255,Some of the symbols are triangles.,"[2, 9, 4]",,0,,False,"[6, 4, 2]",2071,1,,"[0, 1]",,Some of the symbols are stars.,1,1,"[0, 0, 0]","[9, 3, 5]",1
6640,0,There is a spade.,"[0, 0, 0]",2,"[1, 0]",undefined,,1,True,exh-subclausal,False,filler,14.6255,There is a club.,"[3, 1, 9]",,1,,False,"[4, 2, 6]",1623,1,,"[0, 1]",,There is a heart.,1,0,"[0, 0, 0]","[1, 3, 8]",1
,1,,,,,undefined,bot_check,,,,,,18.56325,,,,,1,,,,,"[0, 'Jennifer']",,Jennifer,,,,,,
52953,1,Some of the symbols are spades.,"[0, 0, 0]",0,"[0, 1]",undefined,,1,True,exh-subclausal,True,filler,18.56325,Some of the symbols are stars.,"[3, 4, 2]",,0,,True,"[3, 7, 2]",2740,0,,"[1, 0]",,Some of the symbols are spades.,1,1,"[0, 0, 0]","[6, 1, 2]",1
7120,1,There is a note.,"[0, 0, 0]",2,"[1, 0]",undefined,,0,True,exh-subclausal,True,filler,18.56325,There is a heart.,"[8, 0, 6]",,1,,True,"[9, 4, 3]",2212,1,,"[0, 1]",,There is a triangle.,0,0,"[0, 0, 0]","[4, 7, 6]",1
18071,1,Some but not all of the symbols are diamonds.,"[0, 0, 0]",0,"[1, 0]",undefined,,0,True,exh-subclausal,True,filler,18.56325,Some but not all of the symbols are squares.,"[0, 9, 7]",,0,,True,"[5, 4, 8]",2062,0,,"[1, 0]",,Some of the symbols are squares.,2,0,"[0, 0, 0]","[5, 9, 4]",1
6600,1,There is a square.,"[0, 0, 0]",2,"[0, 1]",undefined,,1,True,exh-subclausal,True,filler,18.56325,There is a square.,"[5, 4, 9]",,0,,True,"[7, 9, 5]",1940,0,,"[1, 0]",,There is a circle.,0,1,"[0, 0, 0]","[5, 2, 8]",1
12598,1,There are four but no more than four notes.,"[0, 0, 0]",1,"[1, 0]",undefined,,0,True,exh-subclausal,True,response,18.56325,There are four but no more than four circles.,"[8, 3, 7]",,1,,True,"[9, 0, 3]",4971,1,,"[0, 1]",,There are four triangles.,2,0,"[0, 0, 0]","[7, 5, 0]",0
7835,1,0 + 8 = ?,"[9, 0, 0]",0,"[1, 0]",undefined,,1,True,exh-subclausal,False,filler,18.56325,6 + 6 = ?,"[8, 0, 8]",,0,,False,"[4, 5, 7]",2542,0,,"[1, 0]",,Some of the symbols are hearts.,3,0,"[5, 0, 0]","[12, 6, 6]",1
8087,1,0 + 0 = ?,"[4, 0, 0]",0,"[0, 1]",undefined,,0,True,exh-subclausal,False,response,18.56325,1 + 1 = ?,"[0, 0, 0]",,1,,False,"[5, 4, 6]",3380,1,,"[0, 1]",,Some of the symbols are squares.,3,1,"[7, 0, 0]","[2, 1, 1]",0
7319,1,There are four circles.,"[0, 0, 0]",1,"[1, 0]",undefined,,0,True,exh-subclausal,True,filler,18.56325,There are four stars.,"[7, 6, 9]",,1,,True,"[0, 1, 4]",2100,1,,"[0, 1]",,There are four diamonds.,0,0,"[0, 0, 0]","[6, 9, 3]",1
5472,1,There is a tick.,"[0, 0, 0]",2,"[1, 0]",undefined,,0,True,exh-subclausal,True,response,18.56325,There is a circle.,"[2, 8, 4]",,1,,True,"[6, 9, 7]",1733,1,,"[0, 1]",,There is a star.,0,0,"[0, 0, 0]","[7, 8, 1]",0
10600,1,Some of the symbols are diamonds.,"[0, 0, 0]",0,"[1, 0]",undefined,,0,True,exh-subclausal,True,filler,18.56325,Some of the symbols are diamonds.,"[0, 4, 3]",,0,,True,"[4, 7, 9]",2428,0,,"[1, 0]",,Some of the symbols are hearts.,0,0,"[0, 0, 0]","[0, 1, 5]",1
11279,1,2 + 8 = ?,"[4, 0, 0]",1,"[1, 0]",undefined,,0,False,exh-subclausal,True,filler,18.56325,2 + 4 = ?,"[10, 2, 8]",,1,,False,"[6, 1, 3]",2204,0,,"[1, 0]",,There are four stars.,3,0,"[9, 0, 0]","[6, 2, 4]",1
30476,1,Some of the symbols are ticks.,"[0, 0, 0]",0,"[1, 0]",undefined,,0,True,exh-subclausal,True,response,18.56325,Some of the symbols are clubs.,"[2, 9, 8]",,1,,True,"[8, 9, 0]",24599,1,,"[0, 1]",,Some of the symbols are notes.,1,0,"[0, 0, 0]","[1, 6, 3]",0
7725,1,There are four but no more than four circles.,"[0, 0, 0]",1,"[0, 1]",undefined,,1,True,exh-subclausal,True,response,18.56325,There are four but no more than four stars.,"[7, 6, 5]",,1,,True,"[0, 7, 2]",2260,1,,"[0, 1]",,There are four diamonds.,2,1,"[0, 0, 0]","[6, 2, 0]",0
8489,1,There are four squares.,"[0, 0, 0]",1,"[1, 0]",undefined,,0,True,exh-subclausal,True,response,18.56325,There are four squares.,"[5, 7, 9]",,0,,True,"[1, 5, 0]",3197,0,,"[1, 0]",,There are four clubs.,0,0,"[0, 0, 0]","[5, 2, 9]",0
13447,1,Some but not all of the symbols are clubs.,"[0, 0, 0]",0,"[1, 0]",undefined,,0,True,exh-subclausal,True,response,18.56325,Some but not all of the symbols are diamonds.,"[1, 2, 7]",,0,,True,"[0, 3, 5]",2542,0,,"[1, 0]",,Some of the symbols are diamonds.,2,0,"[0, 0, 0]","[0, 6, 4]",0
5271,1,There are four ticks.,"[0, 0, 0]",1,"[1, 0]",undefined,,0,True,exh-subclausal,True,filler,18.56325,There are four spades.,"[2, 6, 0]",,1,,True,"[3, 2, 7]",2053,1,,"[0, 1]",,There are four spades.,0,0,"[0, 0, 0]","[3, 8, 7]",1
5063,1,7 + 7 = ?,"[3, 0, 0]",1,"[0, 1]",undefined,,1,True,exh-subclausal,True,filler,18.56325,0 + 7 = ?,"[14, 7, 7]",,0,,True,"[5, 4, 1]",1829,0,,"[1, 0]",,There are four squares.,3,1,"[1, 0, 0]","[7, 0, 7]",1
5983,1,8 + 1 = ?,"[1, 0, 0]",0,"[1, 0]",undefined,,0,True,exh-subclausal,True,response,18.56325,4 + 7 = ?,"[9, 8, 1]",,1,,True,"[6, 2, 3]",2168,1,,"[0, 1]",,Some of the symbols are stars.,3,0,"[1, 0, 0]","[11, 4, 7]",0
102240,1,There is a club but nothing else.,"[0, 0, 0]",2,"[1, 0]",undefined,,0,True,exh-subclausal,True,response,18.56325,There is a diamond but nothing else.,"[1, 5, 7]",,0,,True,"[0, 2, 8]",2324,0,,"[1, 0]",,There is a diamond.,2,0,"[0, 0, 0]","[0, 2, 6]",0
8295,1,There is a spade.,"[0, 0, 0]",2,"[0, 1]",undefined,,1,True,exh-subclausal,True,filler,18.56325,There is a star.,"[3, 7, 0]",,1,,True,"[1, 4, 8]",3428,1,,"[0, 1]",,There is a club.,0,1,"[0, 0, 0]","[6, 2, 0]",1
27745,1,Some but not all of the symbols are ticks.,"[0, 0, 0]",0,"[1, 0]",undefined,,0,True,exh-subclausal,True,filler,18.56325,Some but not all of the symbols are notes.,"[2, 4, 1]",,0,,True,"[6, 5, 9]",2737,0,,"[1, 0]",,Some of the symbols are stars.,2,0,"[0, 0, 0]","[8, 6, 5]",1
10471,1,There are four squares.,"[0, 0, 0]",1,"[1, 0]",undefined,,0,True,exh-subclausal,True,filler,18.56325,There are four diamonds.,"[5, 1, 3]",,0,,True,"[1, 5, 2]",1836,0,,"[1, 0]",,There are four clubs.,0,0,"[0, 0, 0]","[0, 4, 3]",1
10633,1,There is a triangle.,"[0, 0, 0]",2,"[0, 1]",undefined,,0,False,exh-subclausal,False,filler,18.56325,There is a star.,"[9, 3, 8]",,0,,False,"[8, 7, 3]",2134,1,,"[0, 1]",,There is a note.,1,1,"[0, 0, 0]","[6, 0, 4]",1
6346,1,There is a club but nothing else.,"[0, 0, 0]",2,"[1, 0]",undefined,,0,True,exh-subclausal,True,response,18.56325,There is a heart but nothing else.,"[1, 0, 8]",,1,,True,"[6, 5, 0]",2313,1,,"[0, 1]",,There is a star.,2,0,"[0, 0, 0]","[4, 5, 6]",0
9902,1,There are four but no more than four triangles.,"[0, 0, 0]",1,"[1, 0]",undefined,,0,True,exh-subclausal,True,filler,18.56325,There are four but no more than four squares.,"[9, 4, 2]",,1,,True,"[7, 9, 3]",1879,1,,"[0, 1]",,There are four circles.,2,0,"[0, 0, 0]","[5, 9, 7]",1
10943,1,8 + 8 = ?,"[9, 0, 0]",2,"[0, 1]",undefined,,0,False,exh-subclausal,False,filler,18.56325,9 + 2 = ?,"[16, 8, 8]",,1,,False,"[3, 0, 7]",7636,0,,"[1, 0]",,There is a spade.,3,1,"[5, 0, 0]","[11, 9, 2]",1
8485,1,3 + 2 = ?,"[7, 0, 0]",0,"[1, 0]",undefined,,1,True,exh-subclausal,False,filler,18.56325,5 + 2 = ?,"[5, 3, 2]",,0,,False,"[2, 8, 1]",2666,0,,"[1, 0]",,Some of the symbols are ticks.,3,0,"[6, 0, 0]","[7, 5, 2]",1
7626,1,Some but not all of the symbols are triangles.,"[0, 0, 0]",0,"[0, 1]",undefined,,1,True,exh-subclausal,True,response,18.56325,Some but not all of the symbols are notes.,"[9, 1, 7]",,0,,True,"[9, 3, 0]",2492,0,,"[1, 0]",,Some of the symbols are triangles.,2,1,"[0, 0, 0]","[8, 1, 6]",0
6816,1,There is a note.,"[0, 0, 0]",2,"[0, 1]",undefined,,1,True,exh-subclausal,True,response,18.56325,There is a square.,"[8, 2, 4]",,1,,True,"[5, 3, 9]",1775,1,,"[0, 1]",,There is a square.,0,1,"[0, 0, 0]","[5, 1, 9]",0
6191,1,4 + 9 = ?,"[7, 0, 0]",0,"[0, 1]",undefined,,1,True,exh-subclausal,True,filler,18.56325,3 + 2 = ?,"[13, 4, 9]",,0,,True,"[5, 4, 3]",2341,0,,"[1, 0]",,Some of the symbols are squares.,3,1,"[2, 0, 0]","[5, 3, 2]",1
6769,1,There are four spades.,"[0, 0, 0]",1,"[1, 0]",undefined,,1,False,exh-subclausal,False,filler,18.56325,There are four triangles.,"[3, 5, 9]",,0,,False,"[3, 4, 6]",1893,1,,"[0, 1]",,There are four spades.,1,0,"[0, 0, 0]","[9, 1, 5]",1
5487,1,5 + 9 = ?,"[0, 0, 0]",2,"[1, 0]",undefined,,1,False,exh-subclausal,False,response,18.56325,6 + 4 = ?,"[14, 5, 9]",,0,,False,"[8, 0, 4]",1693,1,,"[0, 1]",,There is a note.,3,0,"[6, 0, 0]","[10, 6, 4]",0
18215,1,Some of the symbols are diamonds.,"[0, 0, 0]",0,"[1, 0]",undefined,,0,True,exh-subclausal,True,filler,18.56325,Some of the symbols are circles.,"[0, 8, 2]",,0,,True,"[3, 0, 9]",13561,0,,"[1, 0]",,Some of the symbols are spades.,1,0,"[0, 0, 0]","[7, 1, 9]",1
9087,1,There is a note but nothing else.,"[0, 0, 0]",2,"[0, 1]",undefined,,1,True,exh-subclausal,True,filler,18.56325,There is a triangle but nothing else.,"[8, 4, 6]",,1,,True,"[2, 8, 3]",2018,1,,"[0, 1]",,There is a tick.,2,1,"[0, 0, 0]","[9, 5, 2]",1
5911,1,3 + 2 = ?,"[7, 0, 0]",2,"[1, 0]",undefined,,1,True,exh-subclausal,False,response,18.56325,7 + 3 = ?,"[5, 3, 2]",,0,,False,"[3, 8, 5]",2596,0,,"[1, 0]",,There is a spade.,3,0,"[2, 0, 0]","[10, 7, 3]",0
10023,1,Some of the symbols are clubs.,"[0, 0, 0]",0,"[1, 0]",undefined,,0,True,exh-subclausal,True,response,18.56325,Some of the symbols are diamonds.,"[1, 9, 3]",,0,,True,"[6, 7, 0]",1596,0,,"[1, 0]",,Some of the symbols are stars.,0,0,"[0, 0, 0]","[0, 4, 9]",0
5561,1,Some of the symbols are circles.,"[0, 0, 0]",0,"[1, 0]",undefined,,0,True,exh-subclausal,True,response,18.56325,Some of the symbols are stars.,"[7, 1, 9]",,1,,True,"[1, 6, 0]",1949,1,,"[0, 1]",,Some of the symbols are clubs.,0,0,"[0, 0, 0]","[6, 7, 8]",0
8609,1,There is a spade.,"[0, 0, 0]",2,"[0, 1]",undefined,,0,False,exh-subclausal,False,filler,18.56325,There is a club.,"[3, 9, 2]",,0,,False,"[7, 1, 9]",2005,1,,"[0, 1]",,There is a circle.,1,1,"[0, 0, 0]","[1, 6, 2]",1
4751,1,1 + 9 = ?,"[8, 0, 0]",2,"[1, 0]",undefined,,0,False,exh-subclausal,True,response,18.56325,2 + 3 = ?,"[10, 1, 9]",,1,,False,"[6, 3, 8]",1677,0,,"[1, 0]",,There is a star.,3,0,"[2, 0, 0]","[5, 2, 3]",0
7648,1,Some of the symbols are stars.,"[0, 0, 0]",0,"[0, 1]",undefined,,1,True,exh-subclausal,True,filler,18.56325,Some of the symbols are spades.,"[6, 7, 2]",,1,,True,"[6, 7, 9]",2461,1,,"[0, 1]",,Some of the symbols are stars.,0,1,"[0, 0, 0]","[3, 8, 1]",1
6687,1,There are four ticks.,"[0, 0, 0]",1,"[0, 1]",undefined,,0,False,exh-subclausal,False,filler,18.56325,There are four squares.,"[2, 9, 5]",,1,,False,"[7, 4, 2]",1812,0,,"[1, 0]",,There are four circles.,1,1,"[0, 0, 0]","[5, 9, 1]",1
6848,1,Some of the symbols are notes.,"[0, 0, 0]",0,"[0, 1]",undefined,,1,True,exh-subclausal,True,response,18.56325,Some of the symbols are clubs.,"[8, 4, 0]",,1,,True,"[7, 5, 3]",1580,1,,"[0, 1]",,Some of the symbols are circles.,0,1,"[0, 0, 0]","[1, 3, 4]",0
9758,1,Some but not all of the symbols are spades.,"[0, 0, 0]",0,"[0, 1]",undefined,,1,True,exh-subclausal,True,response,18.56325,Some but not all of the symbols are clubs.,"[3, 6, 9]",,1,,True,"[6, 3, 2]",3326,1,,"[0, 1]",,Some of the symbols are stars.,2,1,"[0, 0, 0]","[1, 5, 4]",0
8952,1,There are four but no more than four notes.,"[0, 0, 0]",1,"[0, 1]",undefined,,1,True,exh-subclausal,True,filler,18.56325,There are four but no more than four ticks.,"[8, 7, 1]",,1,,True,"[1, 4, 0]",2004,1,,"[0, 1]",,There are four clubs.,2,1,"[0, 0, 0]","[2, 4, 1]",1
6095,1,There are four notes.,"[0, 0, 0]",1,"[0, 1]",undefined,,1,True,exh-subclausal,True,response,18.56325,There are four stars.,"[8, 1, 5]",,0,,True,"[3, 1, 6]",2604,0,,"[1, 0]",,There are four spades.,0,1,"[0, 0, 0]","[6, 0, 3]",0
26410,1,Some of the symbols are ticks.,"[0, 0, 0]",0,"[0, 1]",undefined,,1,False,exh-subclausal,True,response,18.56325,Some of the symbols are triangles.,"[2, 4, 8]",,1,,False,"[9, 0, 5]",1605,0,,"[1, 0]",,Some of the symbols are triangles.,1,1,"[0, 0, 0]","[9, 1, 6]",0
9543,1,There is a spade but nothing else.,"[0, 0, 0]",2,"[0, 1]",undefined,,1,True,exh-subclausal,True,filler,18.56325,There is a heart but nothing else.,"[3, 1, 4]",,0,,True,"[9, 1, 2]",1805,0,,"[1, 0]",,There is a triangle.,2,1,"[0, 0, 0]","[4, 8, 5]",1
4800,1,There are four spades.,"[0, 0, 0]",1,"[0, 1]",undefined,,1,True,exh-subclausal,True,response,18.56325,There are four ticks.,"[3, 2, 7]",,0,,True,"[6, 8, 1]",1364,0,,"[1, 0]",,There are four stars.,0,1,"[0, 0, 0]","[2, 5, 3]",0
6272,1,There is a triangle.,"[0, 0, 0]",2,"[0, 1]",undefined,,0,False,exh-subclausal,False,filler,18.56325,There is a square.,"[9, 2, 7]",,0,,False,"[9, 5, 3]",2021,1,,"[0, 1]",,There is a triangle.,1,1,"[0, 0, 0]","[5, 2, 7]",1
12007,1,There is a club.,"[0, 0, 0]",2,"[0, 1]",undefined,,1,True,exh-subclausal,True,response,18.56325,There is a club.,"[1, 8, 5]",,0,,True,"[3, 1, 9]",8020,0,,"[1, 0]",,There is a spade.,0,1,"[0, 0, 0]","[1, 6, 2]",0
7853,1,There are four but no more than four clubs.,"[0, 0, 0]",1,"[0, 1]",undefined,,1,True,exh-subclausal,True,filler,18.56325,There are four but no more than four circles.,"[1, 3, 6]",,0,,True,"[7, 2, 0]",1970,0,,"[1, 0]",,There are four circles.,2,1,"[0, 0, 0]","[7, 9, 4]",1
7250,1,Some of the symbols are clubs.,"[0, 0, 0]",0,"[0, 1]",undefined,,1,False,exh-subclausal,True,response,18.56325,Some of the symbols are ticks.,"[1, 8, 3]",,0,,False,"[6, 4, 8]",1573,1,,"[0, 1]",,Some of the symbols are stars.,1,1,"[0, 0, 0]","[2, 7, 6]",0
8841,1,Some but not all of the symbols are circles.,"[0, 0, 0]",0,"[0, 1]",undefined,,1,True,exh-subclausal,True,response,18.56325,Some but not all of the symbols are ticks.,"[7, 5, 1]",,1,,True,"[4, 2, 3]",3341,1,,"[0, 1]",,Some of the symbols are hearts.,2,1,"[0, 0, 0]","[2, 0, 5]",0
7992,1,Some but not all of the symbols are diamonds.,"[0, 0, 0]",0,"[0, 1]",undefined,,1,True,exh-subclausal,True,filler,18.56325,Some but not all of the symbols are ticks.,"[0, 6, 4]",,1,,True,"[0, 3, 8]",3349,1,,"[0, 1]",,Some of the symbols are diamonds.,2,1,"[0, 0, 0]","[2, 6, 5]",1
6119,1,There is a club but nothing else.,"[0, 0, 0]",2,"[1, 0]",undefined,,0,True,exh-subclausal,True,filler,18.56325,There is a circle but nothing else.,"[1, 8, 6]",,1,,True,"[7, 2, 6]",2552,1,,"[0, 1]",,There is a circle.,2,0,"[0, 0, 0]","[7, 2, 8]",1
5720,1,There is a note but nothing else.,"[0, 0, 0]",2,"[0, 1]",undefined,,1,True,exh-subclausal,True,filler,18.56325,There is a tick but nothing else.,"[8, 0, 4]",,1,,True,"[5, 6, 9]",1894,1,,"[0, 1]",,There is a square.,2,1,"[0, 0, 0]","[2, 8, 4]",1
4598,1,2 + 1 = ?,"[5, 0, 0]",1,"[1, 0]",undefined,,1,False,exh-subclausal,False,response,18.56325,8 + 8 = ?,"[3, 2, 1]",,0,,False,"[7, 6, 8]",1604,1,,"[0, 1]",,There are four circles.,3,0,"[6, 0, 0]","[16, 8, 8]",0
6339,1,There are four triangles.,"[0, 0, 0]",1,"[1, 0]",undefined,,1,False,exh-subclausal,False,response,18.56325,There are four circles.,"[9, 4, 8]",,1,,False,"[6, 5, 0]",2854,0,,"[1, 0]",,There are four stars.,1,0,"[0, 0, 0]","[7, 2, 1]",0
5350,1,1 + 5 = ?,"[2, 0, 0]",0,"[1, 0]",undefined,,1,False,exh-subclausal,False,response,18.56325,0 + 3 = ?,"[6, 1, 5]",,0,,False,"[5, 8, 9]",1510,1,,"[0, 1]",,Some of the symbols are squares.,3,0,"[8, 0, 0]","[3, 0, 3]",0
5592,1,There is a heart.,"[0, 0, 0]",2,"[1, 0]",undefined,,1,False,exh-subclausal,False,response,18.56325,There is a tick.,"[4, 5, 9]",,1,,False,"[6, 2, 1]",1349,0,,"[1, 0]",,There is a star.,1,0,"[0, 0, 0]","[2, 3, 7]",0
6055,1,There is a note but nothing else.,"[0, 0, 0]",2,"[0, 1]",undefined,,1,True,exh-subclausal,True,response,18.56325,There is a note but nothing else.,"[8, 2, 5]",,0,,True,"[3, 5, 1]",2405,0,,"[1, 0]",,There is a spade.,2,1,"[0, 0, 0]","[8, 1, 5]",0
4584,1,There is a spade.,"[0, 0, 0]",2,"[0, 1]",undefined,,0,False,exh-subclausal,False,response,18.56325,There is a spade.,"[3, 1, 9]",,1,,False,"[3, 2, 1]",1661,0,,"[1, 0]",,There is a spade.,1,1,"[0, 0, 0]","[3, 5, 8]",0
4760,1,There are four triangles.,"[0, 0, 0]",1,"[1, 0]",undefined,,1,False,exh-subclausal,False,filler,18.56325,There are four stars.,"[9, 2, 0]",,1,,False,"[1, 9, 8]",1723,0,,"[1, 0]",,There are four clubs.,1,0,"[0, 0, 0]","[6, 0, 4]",1
5778,1,4 + 0 = ?,"[1, 0, 0]",2,"[1, 0]",undefined,,1,False,exh-subclausal,False,filler,18.56325,2 + 8 = ?,"[4, 4, 0]",,0,,False,"[3, 9, 2]",2965,1,,"[0, 1]",,There is a spade.,3,0,"[2, 0, 0]","[10, 2, 8]",1
9055,1,Some of the symbols are hearts.,"[0, 0, 0]",0,"[1, 0]",undefined,,0,False,exh-subclausal,True,response,18.56325,Some of the symbols are triangles.,"[4, 1, 8]",,0,,False,"[8, 4, 2]",1879,1,,"[0, 1]",,Some of the symbols are notes.,1,0,"[0, 0, 0]","[9, 1, 5]",0
7983,1,7 + 5 = ?,"[9, 0, 0]",0,"[1, 0]",undefined,,1,False,exh-subclausal,False,filler,18.56325,0 + 5 = ?,"[12, 7, 5]",,0,,False,"[9, 0, 1]",3563,1,,"[0, 1]",,Some of the symbols are triangles.,3,0,"[5, 0, 0]","[5, 0, 5]",1
5680,1,8 + 1 = ?,"[3, 0, 0]",2,"[0, 1]",undefined,,0,False,exh-subclausal,False,filler,18.56325,2 + 6 = ?,"[9, 8, 1]",,1,,False,"[6, 8, 3]",1660,0,,"[1, 0]",,There is a star.,3,1,"[1, 0, 0]","[8, 2, 6]",1
6567,1,Some of the symbols are diamonds.,"[0, 0, 0]",0,"[0, 1]",undefined,,1,True,exh-subclausal,True,filler,18.56325,Some of the symbols are notes.,"[0, 1, 7]",,1,,True,"[1, 8, 4]",1973,1,,"[0, 1]",,Some of the symbols are clubs.,1,1,"[0, 0, 0]","[8, 4, 2]",1
7208,1,There are four but no more than four ticks.,"[0, 0, 0]",1,"[1, 0]",undefined,,0,True,exh-subclausal,True,response,18.56325,There are four but no more than four notes.,"[2, 9, 3]",,0,,True,"[5, 7, 2]",1988,0,,"[1, 0]",,There are four squares.,2,0,"[0, 0, 0]","[8, 2, 3]",0
6984,1,Some but not all of the symbols are circles.,"[0, 0, 0]",0,"[1, 0]",undefined,,0,True,exh-subclausal,True,filler,18.56325,Some but not all of the symbols are squares.,"[7, 9, 0]",,1,,True,"[6, 3, 8]",3204,1,,"[0, 1]",,Some of the symbols are stars.,2,0,"[0, 0, 0]","[5, 2, 4]",1
5696,1,There is a heart but nothing else.,"[0, 0, 0]",2,"[0, 1]",undefined,,1,True,exh-subclausal,True,response,18.56325,There is a circle but nothing else.,"[4, 8, 7]",,1,,True,"[4, 6, 7]",1562,1,,"[0, 1]",,There is a heart.,2,1,"[0, 0, 0]","[7, 8, 6]",0
5497,1,3 + 1 = ?,"[7, 0, 0]",1,"[0, 1]",undefined,,1,True,exh-subclausal,True,response,18.56325,6 + 5 = ?,"[4, 3, 1]",,0,,True,"[6, 0, 3]",1406,0,,"[1, 0]",,There are four stars.,3,1,"[9, 0, 0]","[11, 6, 5]",0
7455,1,4 + 3 = ?,"[1, 0, 0]",1,"[1, 0]",undefined,,0,True,exh-subclausal,True,filler,18.56325,5 + 8 = ?,"[7, 4, 3]",,1,,True,"[2, 1, 0]",2629,1,,"[0, 1]",,There are four ticks.,3,0,"[9, 0, 0]","[13, 5, 8]",1
55560,1,There is a spade.,"[0, 0, 0]",2,"[1, 0]",undefined,,1,True,exh-subclausal,False,response,18.56325,There is a tick.,"[3, 1, 4]",,0,,False,"[4, 2, 9]",2028,0,,"[1, 0]",,There is a heart.,1,0,"[0, 0, 0]","[2, 9, 5]",0
5255,1,7 + 4 = ?,"[1, 0, 0]",1,"[0, 1]",undefined,,0,False,exh-subclausal,False,response,18.56325,1 + 1 = ?,"[11, 7, 4]",,1,,False,"[3, 6, 0]",1525,0,,"[1, 0]",,There are four spades.,3,1,"[7, 0, 0]","[2, 1, 1]",0
4936,1,There are four squares.,"[0, 0, 0]",1,"[1, 0]",undefined,,1,False,exh-subclausal,False,response,18.56325,There are four triangles.,"[5, 2, 8]",,0,,False,"[1, 3, 7]",1449,1,,"[0, 1]",,There are four clubs.,1,0,"[0, 0, 0]","[9, 2, 1]",0
6238,1,1 + 0 = ?,"[1, 0, 0]",2,"[1, 0]",undefined,,1,True,exh-subclausal,False,response,18.56325,2 + 5 = ?,"[1, 1, 0]",,0,,False,"[6, 3, 4]",2467,0,,"[1, 0]",,There is a star.,3,0,"[4, 0, 0]","[7, 2, 5]",0
5595,1,There is a note.,"[0, 0, 0]",2,"[0, 1]",undefined,,1,True,exh-subclausal,True,response,18.56325,There is a square.,"[8, 9, 0]",,1,,True,"[6, 9, 4]",2120,1,,"[0, 1]",,There is a star.,0,1,"[0, 0, 0]","[5, 9, 6]",0
6021,1,There are four diamonds.,"[0, 0, 0]",1,"[0, 1]",undefined,,1,True,exh-subclausal,True,filler,18.56325,There are four notes.,"[0, 6, 3]",,0,,True,"[5, 8, 6]",1883,0,,"[1, 0]",,There are four squares.,0,1,"[0, 0, 0]","[8, 4, 7]",1
5609,1,There is a note.,"[0, 0, 0]",2,"[0, 1]",undefined,,1,True,exh-subclausal,True,filler,18.56325,There is a tick.,"[8, 6, 7]",,1,,True,"[6, 1, 7]",2629,1,,"[0, 1]",,There is a star.,0,1,"[0, 0, 0]","[2, 0, 1]",1
5216,1,There are four notes.,"[0, 0, 0]",1,"[0, 1]",undefined,,0,False,exh-subclausal,False,response,18.56325,There are four hearts.,"[8, 3, 9]",,0,,False,"[1, 7, 9]",1421,1,,"[0, 1]",,There are four clubs.,1,1,"[0, 0, 0]","[4, 3, 6]",0
5199,1,0 + 8 = ?,"[6, 0, 0]",2,"[0, 1]",undefined,,0,False,exh-subclausal,False,filler,18.56325,5 + 7 = ?,"[8, 0, 8]",,1,,False,"[5, 3, 2]",1715,0,,"[1, 0]",,There is a square.,3,1,"[0, 0, 0]","[12, 5, 7]",1
7048,1,There are four clubs.,"[0, 0, 0]",1,"[1, 0]",undefined,,1,False,exh-subclausal,False,filler,18.56325,There are four notes.,"[1, 8, 4]",,1,,False,"[3, 4, 2]",3012,0,,"[1, 0]",,There are four spades.,1,0,"[0, 0, 0]","[8, 4, 0]",1
6608,1,Some of the symbols are circles.,"[0, 0, 0]",0,"[1, 0]",undefined,,0,True,exh-subclausal,True,response,18.56325,Some of the symbols are circles.,"[7, 5, 9]",,1,,True,"[5, 1, 7]",1485,1,,"[0, 1]",,Some of the symbols are squares.,0,0,"[0, 0, 0]","[7, 8, 4]",0
6903,1,Some of the symbols are hearts.,"[0, 0, 0]",0,"[1, 0]",undefined,,0,True,exh-subclausal,True,filler,18.56325,Some of the symbols are hearts.,"[4, 2, 8]",,0,,True,"[3, 2, 9]",2685,0,,"[1, 0]",,Some of the symbols are spades.,1,0,"[0, 0, 0]","[4, 3, 6]",1
6580,1,There are four but no more than four stars.,"[0, 0, 0]",1,"[0, 1]",undefined,,1,True,exh-subclausal,True,response,18.56325,There are four but no more than four clubs.,"[6, 3, 4]",,0,,True,"[2, 7, 6]",2570,0,,"[1, 0]",,There are four ticks.,2,1,"[0, 0, 0]","[1, 7, 5]",0
9578,1,2 + 9 = ?,"[8, 0, 0]",0,"[0, 1]",undefined,,1,False,exh-subclausal,True,response,18.56325,1 + 4 = ?,"[11, 2, 9]",,0,,False,"[0, 6, 1]",1852,1,,"[0, 1]",,Some of the symbols are diamonds.,3,1,"[1, 0, 0]","[5, 1, 4]",0
5015,1,There are four ticks.,"[0, 0, 0]",1,"[0, 1]",undefined,,1,True,exh-subclausal,True,response,18.56325,There are four triangles.,"[2, 3, 8]",,0,,True,"[3, 5, 0]",1635,0,,"[1, 0]",,There are four spades.,0,1,"[0, 0, 0]","[9, 5, 4]",0
6479,1,Some of the symbols are diamonds.,"[0, 0, 0]",0,"[0, 1]",undefined,,1,True,exh-subclausal,True,filler,18.56325,Some of the symbols are triangles.,"[0, 5, 2]",,0,,True,"[2, 1, 7]",2547,0,,"[1, 0]",,Some of the symbols are ticks.,0,1,"[0, 0, 0]","[9, 2, 4]",1
8289,1,There is a spade.,"[0, 0, 0]",2,"[1, 0]",undefined,,1,False,exh-subclausal,False,filler,18.56325,There is a spade.,"[3, 6, 8]",,1,,False,"[9, 1, 4]",1718,0,,"[1, 0]",,There is a triangle.,1,0,"[0, 0, 0]","[3, 8, 2]",1
5488,1,There are four squares.,"[0, 0, 0]",1,"[0, 1]",undefined,,0,False,exh-subclausal,False,response,18.56325,There are four squares.,"[5, 4, 9]",,1,,False,"[9, 5, 8]",1685,0,,"[1, 0]",,There are four triangles.,1,1,"[0, 0, 0]","[5, 1, 0]",0
4783,1,9 + 3 = ?,"[6, 0, 0]",1,"[0, 1]",undefined,,1,False,exh-subclausal,True,response,18.56325,5 + 2 = ?,"[12, 9, 3]",,0,,False,"[0, 3, 8]",1517,1,,"[0, 1]",,There are four diamonds.,3,1,"[0, 0, 0]","[7, 5, 2]",0
6080,1,7 + 1 = ?,"[8, 0, 0]",1,"[1, 0]",undefined,,1,False,exh-subclausal,False,filler,18.56325,6 + 6 = ?,"[8, 7, 1]",,0,,False,"[6, 0, 3]",2605,1,,"[0, 1]",,There are four stars.,3,0,"[2, 0, 0]","[12, 6, 6]",1
8905,1,Some of the symbols are clubs.,"[0, 0, 0]",0,"[1, 0]",undefined,,0,True,exh-subclausal,True,filler,18.56325,Some of the symbols are stars.,"[1, 0, 4]",,1,,True,"[1, 9, 7]",1901,1,,"[0, 1]",,Some of the symbols are clubs.,0,0,"[0, 0, 0]","[6, 3, 4]",1
6000,1,There are four but no more than four circles.,"[0, 0, 0]",1,"[0, 1]",undefined,,1,True,exh-subclausal,True,filler,18.56325,There are four but no more than four spades.,"[7, 2, 6]",,1,,True,"[7, 8, 2]",1892,1,,"[0, 1]",,There are four circles.,2,1,"[0, 0, 0]","[3, 7, 5]",1
6831,1,There is a square.,"[0, 0, 0]",2,"[1, 0]",undefined,,0,True,exh-subclausal,True,response,18.56325,There is a heart.,"[5, 1, 9]",,0,,True,"[4, 5, 3]",1965,0,,"[1, 0]",,There is a heart.,1,0,"[0, 0, 0]","[4, 3, 5]",0
,2,,,,,undefined,bot_check,,,,,,13.846333333333334,,,,,1,,,,,"[0, 'Patricia']",,Patricia,,,,,,
10090,2,There are four triangles.,"[0, 0, 0]",1,"[0, 1]",undefined,,1,True,exh-subclausal,True,response,13.846333333333334,There are four notes.,"[9, 3, 1]",,1,,True,"[3, 9, 0]",3183,1,,"[0, 1]",,There are four spades.,0,1,"[0, 0, 0]","[8, 3, 5]",1
6682,2,There are four clubs.,"[0, 0, 0]",1,"[1, 0]",undefined,,0,True,exh-subclausal,True,filler,13.846333333333334,There are four spades.,"[1, 0, 3]",,0,,True,"[3, 9, 6]",2519,0,,"[1, 0]",,There are four spades.,1,0,"[0, 0, 0]","[3, 7, 4]",1
23692,2,There is a triangle.,"[0, 0, 0]",2,"[0, 1]",undefined,,1,True,exh-subclausal,True,response,13.846333333333334,There is a triangle.,"[9, 8, 2]",,0,,True,"[0, 5, 3]",2918,0,,"[1, 0]",,There is a diamond.,0,1,"[0, 0, 0]","[9, 8, 3]",0
4800,2,There are four clubs.,"[0, 0, 0]",1,"[1, 0]",undefined,,0,True,exh-subclausal,True,filler,13.846333333333334,There are four triangles.,"[1, 3, 2]",,1,,True,"[3, 7, 0]",1496,1,,"[0, 1]",,There are four spades.,0,0,"[0, 0, 0]","[9, 8, 7]",1
7167,2,Some of the symbols are circles.,"[0, 0, 0]",0,"[1, 0]",undefined,,0,True,exh-subclausal,True,filler,13.846333333333334,Some of the symbols are circles.,"[7, 9, 3]",,1,,True,"[7, 2, 6]",1775,1,,"[0, 1]",,Some of the symbols are circles.,1,0,"[0, 0, 0]","[7, 9, 6]",1
4616,2,There is a circle.,"[0, 0, 0]",2,"[0, 1]",undefined,,1,True,exh-subclausal,True,filler,13.846333333333334,There is a diamond.,"[7, 4, 9]",,0,,True,"[8, 4, 3]",1503,0,,"[1, 0]",,There is a note.,0,1,"[0, 0, 0]","[0, 6, 4]",1
4496,2,There are four ticks.,"[0, 0, 0]",1,"[1, 0]",undefined,,0,True,exh-subclausal,True,response,13.846333333333334,There are four circles.,"[2, 0, 4]",,1,,True,"[0, 1, 9]",1623,1,,"[0, 1]",,There are four diamonds.,0,0,"[0, 0, 0]","[7, 2, 3]",1
17936,2,There are four but no more than four triangles.,"[0, 0, 0]",1,"[0, 1]",undefined,,1,True,exh-subclausal,True,response,13.846333333333334,There are four but no more than four clubs.,"[9, 3, 2]",,0,,True,"[4, 9, 7]",1760,0,,"[1, 0]",,There are four hearts.,2,1,"[0, 0, 0]","[1, 7, 9]",1
7016,2,Some of the symbols are notes.,"[0, 0, 0]",0,"[1, 0]",undefined,,0,True,exh-subclausal,True,response,13.846333333333334,Some of the symbols are diamonds.,"[8, 0, 6]",,1,,True,"[5, 8, 0]",2160,1,,"[0, 1]",,Some of the symbols are squares.,0,0,"[0, 0, 0]","[0, 7, 4]",0
3567,2,There are four spades.,"[0, 0, 0]",1,"[1, 0]",undefined,,0,True,exh-subclausal,True,filler,13.846333333333334,There are four triangles.,"[3, 2, 6]",,1,,True,"[2, 7, 3]",1231,1,,"[0, 1]",,There are four ticks.,0,0,"[0, 0, 0]","[9, 7, 6]",1
5480,2,Some of the symbols are stars.,"[0, 0, 0]",0,"[0, 1]",undefined,,1,True,exh-subclausal,True,response,13.846333333333334,Some of the symbols are ticks.,"[6, 8, 4]",,1,,True,"[7, 9, 5]",2159,1,,"[0, 1]",,Some of the symbols are circles.,1,1,"[0, 0, 0]","[2, 6, 0]",1
5944,2,Some of the symbols are notes.,"[0, 0, 0]",0,"[1, 0]",undefined,,0,True,exh-subclausal,True,response,13.846333333333334,Some of the symbols are clubs.,"[8, 4, 9]",,1,,True,"[1, 3, 6]",1551,1,,"[0, 1]",,Some of the symbols are clubs.,1,0,"[0, 0, 0]","[1, 6, 4]",1
3672,2,There are four circles.,"[0, 0, 0]",1,"[0, 1]",undefined,,1,True,exh-subclausal,True,response,13.846333333333334,There are four spades.,"[7, 8, 9]",,1,,True,"[5, 8, 9]",1607,1,,"[0, 1]",,There are four squares.,1,1,"[0, 0, 0]","[3, 0, 9]",1
17448,2,There are four stars.,"[0, 0, 0]",1,"[0, 1]",undefined,,1,True,exh-subclausal,True,filler,13.846333333333334,There are four spades.,"[6, 2, 0]",,1,,True,"[9, 6, 0]",15208,1,,"[0, 1]",,There are four triangles.,1,1,"[0, 0, 0]","[3, 6, 1]",1
15911,2,Some of the symbols are notes.,"[0, 0, 0]",0,"[0, 1]",undefined,,1,True,exh-subclausal,True,filler,13.846333333333334,Some of the symbols are circles.,"[8, 9, 7]",,0,,True,"[2, 5, 8]",1191,0,,"[1, 0]",,Some of the symbols are ticks.,1,1,"[0, 0, 0]","[7, 1, 4]",1
4584,2,Some of the symbols are stars.,"[0, 0, 0]",0,"[0, 1]",undefined,,1,True,exh-subclausal,True,filler,13.846333333333334,Some of the symbols are circles.,"[6, 1, 2]",,0,,True,"[7, 4, 0]",1671,0,,"[1, 0]",,Some of the symbols are circles.,0,1,"[0, 0, 0]","[7, 6, 1]",1
4144,2,There is a diamond.,"[0, 0, 0]",2,"[0, 1]",undefined,,1,True,exh-subclausal,True,response,13.846333333333334,There is a note.,"[0, 2, 5]",,1,,True,"[8, 0, 7]",1519,1,,"[0, 1]",,There is a note.,0,1,"[0, 0, 0]","[8, 3, 6]",0
16224,2,There are four but no more than four hearts.,"[0, 0, 0]",1,"[1, 0]",undefined,,1,True,exh-subclausal,False,filler,13.846333333333334,There are four but no more than four ticks.,"[4, 1, 7]",,1,,False,"[8, 4, 0]",4607,1,,"[0, 1]",,There are four notes.,2,0,"[0, 0, 0]","[2, 6, 9]",1
6110,2,There is a triangle.,"[0, 0, 0]",2,"[0, 1]",undefined,,1,True,exh-subclausal,True,response,13.846333333333334,There is a tick.,"[9, 2, 7]",,0,,True,"[2, 4, 6]",2382,0,,"[1, 0]",,There is a tick.,1,1,"[0, 0, 0]","[2, 3, 6]",0
44975,2,4 + 1 = ?,"[9, 0, 0]",2,"[0, 1]",undefined,,1,False,exh-subclausal,True,filler,13.846333333333334,8 + 2 = ?,"[5, 4, 1]",,0,,False,"[9, 5, 3]",1488,1,,"[0, 1]",,There is a triangle.,3,1,"[1, 0, 0]","[10, 8, 2]",1
3631,2,There is a diamond but nothing else.,"[0, 0, 0]",2,"[1, 0]",undefined,,0,True,exh-subclausal,True,filler,13.846333333333334,There is a note but nothing else.,"[0, 2, 5]",,1,,True,"[2, 5, 8]",1262,1,,"[0, 1]",,There is a tick.,2,0,"[0, 0, 0]","[8, 2, 0]",1
5168,2,Some of the symbols are circles.,"[0, 0, 0]",0,"[0, 1]",undefined,,1,True,exh-subclausal,True,response,13.846333333333334,Some of the symbols are circles.,"[7, 4, 3]",,0,,True,"[2, 3, 7]",2783,0,,"[1, 0]",,Some of the symbols are ticks.,0,1,"[0, 0, 0]","[7, 8, 2]",1
7040,2,7 + 4 = ?,"[4, 0, 0]",0,"[1, 0]",undefined,,1,False,exh-subclausal,False,response,13.846333333333334,8 + 7 = ?,"[11, 7, 4]",,0,,False,"[2, 9, 1]",1463,1,,"[0, 1]",,Some of the symbols are ticks.,3,0,"[6, 0, 0]","[15, 8, 7]",1
5168,2,Some but not all of the symbols are clubs.,"[0, 0, 0]",0,"[0, 1]",undefined,,1,True,exh-subclausal,True,filler,13.846333333333334,Some but not all of the symbols are notes.,"[1, 4, 3]",,1,,True,"[1, 7, 5]",1583,1,,"[0, 1]",,Some of the symbols are clubs.,2,1,"[0, 0, 0]","[8, 5, 1]",1
4792,2,4 + 7 = ?,"[3, 0, 0]",0,"[0, 1]",undefined,,0,False,exh-subclausal,False,filler,13.846333333333334,5 + 5 = ?,"[11, 4, 7]",,1,,False,"[8, 5, 9]",1192,0,,"[1, 0]",,Some of the symbols are notes.,3,1,"[1, 0, 0]","[10, 5, 5]",1
4888,2,2 + 3 = ?,"[4, 0, 0]",0,"[0, 1]",undefined,,0,False,exh-subclausal,False,response,13.846333333333334,2 + 4 = ?,"[5, 2, 3]",,1,,False,"[0, 9, 4]",1847,0,,"[1, 0]",,Some of the symbols are diamonds.,3,1,"[2, 0, 0]","[6, 2, 4]",0
24007,2,Some of the symbols are clubs.,"[0, 0, 0]",0,"[1, 0]",undefined,,0,True,exh-subclausal,True,response,13.846333333333334,Some of the symbols are diamonds.,"[1, 8, 0]",,0,,True,"[5, 4, 0]",1391,0,,"[1, 0]",,Some of the symbols are squares.,1,0,"[0, 0, 0]","[0, 5, 1]",1
4328,2,There are four but no more than four ticks.,"[0, 0, 0]",1,"[0, 1]",undefined,,1,True,exh-subclausal,True,response,13.846333333333334,There are four but no more than four notes.,"[2, 1, 3]",,0,,True,"[5, 8, 7]",1431,0,,"[1, 0]",,There are four squares.,2,1,"[0, 0, 0]","[8, 0, 1]",0
4232,2,1 + 8 = ?,"[5, 0, 0]",2,"[0, 1]",undefined,,1,False,exh-subclausal,True,response,13.846333333333334,6 + 6 = ?,"[9, 1, 8]",,0,,False,"[8, 0, 9]",1503,1,,"[0, 1]",,There is a note.,3,1,"[10, 0, 0]","[12, 6, 6]",0
4360,2,9 + 9 = ?,"[6, 0, 0]",2,"[1, 0]",undefined,,1,True,exh-subclausal,False,response,13.846333333333334,1 + 6 = ?,"[18, 9, 9]",,0,,False,"[0, 6, 3]",1544,0,,"[1, 0]",,There is a diamond.,3,0,"[5, 0, 0]","[7, 1, 6]",0
6376,2,0 + 8 = ?,"[1, 0, 0]",0,"[0, 1]",undefined,,0,False,exh-subclausal,False,filler,13.846333333333334,5 + 1 = ?,"[8, 0, 8]",,0,,False,"[9, 6, 4]",1591,1,,"[0, 1]",,Some of the symbols are triangles.,3,1,"[8, 0, 0]","[6, 5, 1]",1
6960,2,Some of the symbols are spades.,"[0, 0, 0]",0,"[0, 1]",undefined,,1,True,exh-subclausal,True,response,13.846333333333334,Some of the symbols are spades.,"[3, 5, 8]",,0,,True,"[7, 0, 5]",2055,0,,"[1, 0]",,Some of the symbols are circles.,1,1,"[0, 0, 0]","[3, 8, 9]",0
4079,2,There is a heart.,"[0, 0, 0]",2,"[1, 0]",undefined,,0,True,exh-subclausal,True,filler,13.846333333333334,There is a tick.,"[4, 2, 9]",,0,,True,"[2, 6, 9]",1158,0,,"[1, 0]",,There is a tick.,0,0,"[0, 0, 0]","[2, 9, 3]",1
3719,2,There is a diamond but nothing else.,"[0, 0, 0]",2,"[0, 1]",undefined,,1,True,exh-subclausal,True,response,13.846333333333334,There is a circle but nothing else.,"[0, 1, 6]",,1,,True,"[4, 3, 9]",1215,1,,"[0, 1]",,There is a heart.,2,1,"[0, 0, 0]","[7, 4, 0]",0
30335,2,There are four but no more than four notes.,"[0, 0, 0]",1,"[1, 0]",undefined,,0,True,exh-subclausal,True,response,13.846333333333334,There are four but no more than four ticks.,"[8, 9, 1]",,1,,True,"[0, 3, 4]",11418,1,,"[0, 1]",,There are four diamonds.,2,0,"[0, 0, 0]","[2, 9, 5]",0
4656,2,0 + 5 = ?,"[4, 0, 0]",2,"[1, 0]",undefined,,1,True,exh-subclausal,False,filler,13.846333333333334,7 + 4 = ?,"[5, 0, 5]",,0,,False,"[6, 2, 5]",1215,0,,"[1, 0]",,There is a star.,3,0,"[8, 0, 0]","[11, 7, 4]",1
4088,2,Some of the symbols are notes.,"[0, 0, 0]",0,"[1, 0]",undefined,,0,True,exh-subclausal,True,response,13.846333333333334,Some of the symbols are diamonds.,"[8, 2, 3]",,1,,True,"[9, 3, 6]",1207,1,,"[0, 1]",,Some of the symbols are triangles.,0,0,"[0, 0, 0]","[0, 4, 2]",0
3175,2,Some of the symbols are notes.,"[0, 0, 0]",0,"[1, 0]",undefined,,0,True,exh-subclausal,True,response,13.846333333333334,Some of the symbols are circles.,"[8, 9, 2]",,0,,True,"[4, 0, 1]",927,0,,"[1, 0]",,Some of the symbols are hearts.,0,0,"[0, 0, 0]","[7, 0, 6]",0
4135,2,There are four clubs.,"[0, 0, 0]",1,"[1, 0]",undefined,,0,True,exh-subclausal,True,filler,13.846333333333334,There are four circles.,"[1, 8, 0]",,1,,True,"[8, 5, 3]",1206,1,,"[0, 1]",,There are four notes.,0,0,"[0, 0, 0]","[7, 0, 1]",1
4848,2,Some but not all of the symbols are notes.,"[0, 0, 0]",0,"[1, 0]",undefined,,0,True,exh-subclausal,True,filler,13.846333333333334,Some but not all of the symbols are notes.,"[8, 9, 5]",,1,,True,"[7, 4, 3]",1135,1,,"[0, 1]",,Some of the symbols are circles.,2,0,"[0, 0, 0]","[8, 0, 4]",1
3544,2,There is a club.,"[0, 0, 0]",2,"[0, 1]",undefined,,1,True,exh-subclausal,True,response,13.846333333333334,There is a heart.,"[1, 3, 7]",,0,,True,"[4, 0, 3]",1399,0,,"[1, 0]",,There is a heart.,1,1,"[0, 0, 0]","[4, 8, 2]",0
3791,2,Some but not all of the symbols are circles.,"[0, 0, 0]",0,"[1, 0]",undefined,,0,True,exh-subclausal,True,filler,13.846333333333334,Some but not all of the symbols are hearts.,"[7, 8, 1]",,1,,True,"[7, 4, 5]",1239,1,,"[0, 1]",,Some of the symbols are circles.,2,0,"[0, 0, 0]","[4, 5, 6]",1
4976,2,5 + 9 = ?,"[7, 0, 0]",1,"[1, 0]",undefined,,0,False,exh-subclausal,True,response,13.846333333333334,5 + 9 = ?,"[14, 5, 9]",,1,,False,"[9, 3, 0]",1232,0,,"[1, 0]",,There are four triangles.,3,0,"[7, 0, 0]","[14, 5, 9]",0
14279,2,5 + 2 = ?,"[5, 0, 0]",0,"[1, 0]",undefined,,1,False,exh-subclausal,False,filler,13.846333333333334,8 + 8 = ?,"[7, 5, 2]",,0,,False,"[7, 9, 0]",11767,1,,"[0, 1]",,Some of the symbols are circles.,3,0,"[8, 0, 0]","[16, 8, 8]",1
4224,2,There are four ticks.,"[0, 0, 0]",1,"[1, 0]",undefined,,0,True,exh-subclausal,True,response,13.846333333333334,There are four ticks.,"[2, 6, 1]",,0,,True,"[5, 6, 9]",1288,0,,"[1, 0]",,There are four squares.,1,0,"[0, 0, 0]","[2, 3, 5]",0
3400,2,There are four notes.,"[0, 0, 0]",1,"[1, 0]",undefined,,0,True,exh-subclausal,True,filler,13.846333333333334,There are four squares.,"[8, 5, 4]",,0,,True,"[1, 8, 7]",1256,0,,"[1, 0]",,There are four clubs.,1,0,"[0, 0, 0]","[5, 9, 0]",1
4255,2,Some of the symbols are triangles.,"[0, 0, 0]",0,"[1, 0]",undefined,,0,True,exh-subclausal,True,filler,13.846333333333334,Some of the symbols are ticks.,"[9, 3, 6]",,0,,True,"[8, 4, 0]",1047,0,,"[1, 0]",,Some of the symbols are notes.,1,0,"[0, 0, 0]","[2, 1, 0]",1
3175,2,There are four spades.,"[0, 0, 0]",1,"[0, 1]",undefined,,1,True,exh-subclausal,True,filler,13.846333333333334,There are four stars.,"[3, 7, 4]",,1,,True,"[9, 7, 2]",1047,1,,"[0, 1]",,There are four triangles.,1,1,"[0, 0, 0]","[6, 1, 3]",1
4552,2,There is a diamond.,"[0, 0, 0]",2,"[0, 1]",undefined,,1,True,exh-subclausal,True,response,13.846333333333334,There is a heart.,"[0, 3, 9]",,1,,True,"[8, 1, 9]",1431,1,,"[0, 1]",,There is a note.,0,1,"[0, 0, 0]","[4, 1, 3]",0
5368,2,1 + 3 = ?,"[3, 0, 0]",1,"[0, 1]",undefined,,0,True,exh-subclausal,False,response,13.846333333333334,6 + 7 = ?,"[4, 1, 3]",,1,,False,"[2, 6, 9]",1543,1,,"[0, 1]",,There are four ticks.,3,1,"[2, 0, 0]","[13, 6, 7]",1
6232,2,There is a note.,"[0, 0, 0]",2,"[1, 0]",undefined,,0,True,exh-subclausal,True,filler,13.846333333333334,There is a diamond.,"[8, 6, 3]",,1,,True,"[9, 6, 1]",1447,1,,"[0, 1]",,There is a triangle.,1,0,"[0, 0, 0]","[0, 8, 6]",1
9456,2,There is a club but nothing else.,"[0, 0, 0]",2,"[1, 0]",undefined,,0,True,exh-subclausal,True,response,13.846333333333334,There is a circle but nothing else.,"[1, 6, 5]",,0,,True,"[5, 4, 6]",2471,0,,"[1, 0]",,There is a square.,2,0,"[0, 0, 0]","[7, 2, 6]",0
6680,2,There is a club but nothing else.,"[0, 0, 0]",2,"[1, 0]",undefined,,0,True,exh-subclausal,True,response,13.846333333333334,There is a heart but nothing else.,"[1, 7, 3]",,1,,True,"[1, 2, 3]",3607,1,,"[0, 1]",,There is a club.,2,0,"[0, 0, 0]","[4, 8, 2]",0
36582,2,5 + 9 = ?,"[8, 0, 0]",0,"[1, 0]",undefined,,0,False,exh-subclausal,True,filler,13.846333333333334,9 + 2 = ?,"[14, 5, 9]",,1,,False,"[3, 5, 0]",6719,0,,"[1, 0]",,Some of the symbols are spades.,3,0,"[5, 0, 0]","[11, 9, 2]",0
5208,2,Some but not all of the symbols are notes.,"[0, 0, 0]",0,"[0, 1]",undefined,,1,True,exh-subclausal,True,filler,13.846333333333334,Some but not all of the symbols are circles.,"[8, 9, 0]",,1,,True,"[2, 0, 3]",1687,1,,"[0, 1]",,Some of the symbols are ticks.,2,1,"[0, 0, 0]","[7, 9, 6]",1
4695,2,There is a heart.,"[0, 0, 0]",2,"[0, 1]",undefined,,1,True,exh-subclausal,True,filler,13.846333333333334,There is a triangle.,"[4, 2, 0]",,1,,True,"[4, 5, 2]",1958,1,,"[0, 1]",,There is a heart.,1,1,"[0, 0, 0]","[9, 2, 7]",1
33496,2,8 + 1 = ?,"[4, 0, 0]",1,"[1, 0]",undefined,,1,True,exh-subclausal,False,response,13.846333333333334,3 + 4 = ?,"[9, 8, 1]",,0,,False,"[5, 7, 3]",2720,0,,"[1, 0]",,There are four squares.,3,0,"[7, 0, 0]","[7, 3, 4]",1
4959,2,Some of the symbols are clubs.,"[0, 0, 0]",0,"[0, 1]",undefined,,1,True,exh-subclausal,True,filler,13.846333333333334,Some of the symbols are hearts.,"[1, 6, 3]",,0,,True,"[4, 0, 9]",1471,0,,"[1, 0]",,Some of the symbols are hearts.,0,1,"[0, 0, 0]","[4, 8, 6]",1
3513,2,There are four but no more than four clubs.,"[0, 0, 0]",1,"[0, 1]",undefined,,1,True,exh-subclausal,True,filler,13.846333333333334,There are four but no more than four ticks.,"[1, 9, 0]",,1,,True,"[0, 9, 5]",1407,1,,"[0, 1]",,There are four diamonds.,2,1,"[0, 0, 0]","[2, 0, 6]",1
7327,2,There is a spade.,"[0, 0, 0]",2,"[1, 0]",undefined,,0,True,exh-subclausal,True,filler,13.846333333333334,There is a spade.,"[3, 7, 1]",,0,,True,"[2, 3, 9]",1479,0,,"[1, 0]",,There is a tick.,0,0,"[0, 0, 0]","[3, 6, 8]",1
5152,2,Some but not all of the symbols are triangles.,"[0, 0, 0]",0,"[0, 1]",undefined,,1,True,exh-subclausal,True,response,13.846333333333334,Some but not all of the symbols are diamonds.,"[9, 8, 3]",,1,,True,"[2, 9, 8]",1551,1,,"[0, 1]",,Some of the symbols are ticks.,2,1,"[0, 0, 0]","[0, 3, 8]",1
3752,2,There are four but no more than four ticks.,"[0, 0, 0]",1,"[0, 1]",undefined,,1,True,exh-subclausal,True,filler,13.846333333333334,There are four but no more than four stars.,"[2, 6, 1]",,0,,True,"[4, 5, 2]",1351,0,,"[1, 0]",,There are four hearts.,2,1,"[0, 0, 0]","[6, 7, 5]",1
3855,2,There is a spade.,"[0, 0, 0]",2,"[0, 1]",undefined,,1,True,exh-subclausal,True,filler,13.846333333333334,There is a diamond.,"[3, 7, 1]",,1,,True,"[7, 9, 4]",1527,1,,"[0, 1]",,There is a circle.,1,1,"[0, 0, 0]","[0, 8, 6]",1
4880,2,Some of the symbols are squares.,"[0, 0, 0]",0,"[1, 0]",undefined,,0,True,exh-subclausal,True,filler,13.846333333333334,Some of the symbols are spades.,"[5, 3, 6]",,0,,True,"[0, 1, 7]",1751,0,,"[1, 0]",,Some of the symbols are diamonds.,0,0,"[0, 0, 0]","[3, 2, 6]",1
18335,2,Some of the symbols are stars.,"[0, 0, 0]",0,"[0, 1]",undefined,,1,True,exh-subclausal,True,filler,13.846333333333334,Some of the symbols are clubs.,"[6, 1, 4]",,1,,True,"[3, 2, 5]",15174,1,,"[0, 1]",,Some of the symbols are spades.,1,1,"[0, 0, 0]","[1, 7, 4]",1
3808,2,There are four but no more than four clubs.,"[0, 0, 0]",1,"[0, 1]",undefined,,1,True,exh-subclausal,True,filler,13.846333333333334,There are four but no more than four hearts.,"[1, 5, 6]",,0,,True,"[7, 6, 9]",1056,0,,"[1, 0]",,There are four circles.,2,1,"[0, 0, 0]","[4, 0, 3]",1
4376,2,There are four stars.,"[0, 0, 0]",1,"[1, 0]",undefined,,0,True,exh-subclausal,True,filler,13.846333333333334,There are four stars.,"[6, 5, 1]",,0,,True,"[8, 5, 7]",1240,0,,"[1, 0]",,There are four notes.,0,0,"[0, 0, 0]","[6, 0, 8]",1
5799,2,Some but not all of the symbols are squares.,"[0, 0, 0]",0,"[1, 0]",undefined,,0,True,exh-subclausal,True,response,13.846333333333334,Some but not all of the symbols are squares.,"[5, 1, 9]",,0,,True,"[8, 2, 1]",1751,0,,"[1, 0]",,Some of the symbols are notes.,2,0,"[0, 0, 0]","[5, 8, 6]",0
7992,2,Some of the symbols are diamonds.,"[0, 0, 0]",0,"[1, 0]",undefined,,0,True,exh-subclausal,True,filler,13.846333333333334,Some of the symbols are circles.,"[0, 4, 2]",,0,,True,"[0, 4, 9]",2399,0,,"[1, 0]",,Some of the symbols are diamonds.,0,0,"[0, 0, 0]","[7, 5, 3]",1
10584,2,There are four squares.,"[0, 0, 0]",1,"[1, 0]",undefined,,0,True,exh-subclausal,True,response,13.846333333333334,There are four squares.,"[5, 9, 8]",,0,,True,"[2, 8, 5]",1599,0,,"[1, 0]",,There are four ticks.,1,0,"[0, 0, 0]","[5, 3, 8]",1
6280,2,There is a triangle but nothing else.,"[0, 0, 0]",2,"[0, 1]",undefined,,1,True,exh-subclausal,True,filler,13.846333333333334,There is a tick but nothing else.,"[9, 7, 3]",,0,,True,"[5, 2, 8]",2423,0,,"[1, 0]",,There is a square.,2,1,"[0, 0, 0]","[2, 4, 0]",1
6360,2,9 + 2 = ?,"[4, 0, 0]",1,"[0, 1]",undefined,,1,False,exh-subclausal,True,filler,13.846333333333334,1 + 1 = ?,"[11, 9, 2]",,0,,False,"[6, 8, 7]",2135,1,,"[0, 1]",,There are four stars.,3,1,"[5, 0, 0]","[2, 1, 1]",1
7559,2,There is a club but nothing else.,"[0, 0, 0]",2,"[0, 1]",undefined,,1,True,exh-subclausal,True,response,13.846333333333334,There is a heart but nothing else.,"[1, 2, 6]",,1,,True,"[7, 1, 9]",2063,1,,"[0, 1]",,There is a circle.,2,1,"[0, 0, 0]","[4, 5, 1]",0
4528,2,7 + 7 = ?,"[2, 0, 0]",1,"[1, 0]",undefined,,0,False,exh-subclausal,True,filler,13.846333333333334,8 + 2 = ?,"[14, 7, 7]",,1,,False,"[6, 9, 4]",1095,0,,"[1, 0]",,There are four stars.,3,0,"[3, 0, 0]","[10, 8, 2]",1
31567,2,1 + 5 = ?,"[4, 0, 0]",0,"[1, 0]",undefined,,1,False,exh-subclausal,False,response,13.846333333333334,9 + 7 = ?,"[6, 1, 5]",,0,,False,"[6, 7, 3]",1550,1,,"[0, 1]",,Some of the symbols are stars.,3,0,"[3, 0, 0]","[16, 9, 7]",0
4256,2,9 + 3 = ?,"[8, 0, 0]",1,"[0, 1]",undefined,,1,False,exh-subclausal,True,filler,13.846333333333334,4 + 5 = ?,"[12, 9, 3]",,0,,False,"[5, 3, 1]",1015,1,,"[0, 1]",,There are four squares.,3,1,"[7, 0, 0]","[9, 4, 5]",1
4304,2,1 + 9 = ?,"[1, 0, 0]",1,"[1, 0]",undefined,,0,False,exh-subclausal,True,filler,13.846333333333334,8 + 0 = ?,"[10, 1, 9]",,1,,False,"[5, 0, 2]",1856,0,,"[1, 0]",,There are four squares.,3,0,"[4, 0, 0]","[8, 8, 0]",1
5496,2,5 + 8 = ?,"[2, 0, 0]",1,"[1, 0]",undefined,,1,False,exh-subclausal,False,response,13.846333333333334,2 + 4 = ?,"[13, 5, 8]",,0,,False,"[8, 6, 4]",1240,1,,"[0, 1]",,There are four notes.,3,0,"[8, 0, 0]","[6, 2, 4]",0
3671,2,There are four but no more than four spades.,"[0, 0, 0]",1,"[0, 1]",undefined,,1,True,exh-subclausal,True,response,13.846333333333334,There are four but no more than four spades.,"[3, 8, 4]",,0,,True,"[8, 3, 1]",1397,0,,"[1, 0]",,There are four notes.,2,1,"[0, 0, 0]","[3, 0, 4]",0
3344,2,3 + 3 = ?,"[5, 0, 0]",2,"[0, 1]",undefined,,1,True,exh-subclausal,True,response,13.846333333333334,3 + 1 = ?,"[6, 3, 3]",,0,,True,"[5, 3, 6]",1135,0,,"[1, 0]",,There is a square.,3,1,"[9, 0, 0]","[4, 3, 1]",0
3576,2,There is a circle.,"[0, 0, 0]",2,"[1, 0]",undefined,,0,True,exh-subclausal,True,response,13.846333333333334,There is a heart.,"[7, 8, 3]",,1,,True,"[9, 0, 3]",1151,1,,"[0, 1]",,There is a triangle.,0,0,"[0, 0, 0]","[4, 5, 8]",0
6448,2,There is a diamond.,"[0, 0, 0]",2,"[1, 0]",undefined,,0,True,exh-subclausal,True,response,13.846333333333334,There is a star.,"[0, 1, 3]",,1,,True,"[1, 2, 8]",4071,1,,"[0, 1]",,There is a club.,1,0,"[0, 0, 0]","[6, 7, 2]",1
4384,2,3 + 2 = ?,"[1, 0, 0]",2,"[0, 1]",undefined,,0,False,exh-subclausal,False,filler,13.846333333333334,0 + 4 = ?,"[5, 3, 2]",,1,,False,"[6, 9, 8]",1399,0,,"[1, 0]",,There is a star.,3,1,"[9, 0, 0]","[4, 0, 4]",1
3984,2,There is a circle.,"[0, 0, 0]",2,"[1, 0]",undefined,,0,True,exh-subclausal,True,filler,13.846333333333334,There is a diamond.,"[7, 4, 3]",,1,,True,"[0, 8, 5]",1199,1,,"[0, 1]",,There is a diamond.,0,0,"[0, 0, 0]","[0, 8, 5]",1
3456,2,There is a spade.,"[0, 0, 0]",2,"[0, 1]",undefined,,1,True,exh-subclausal,True,filler,13.846333333333334,There is a star.,"[3, 8, 0]",,0,,True,"[2, 8, 0]",1064,0,,"[1, 0]",,There is a tick.,1,1,"[0, 0, 0]","[6, 1, 5]",1
3872,2,There is a star.,"[0, 0, 0]",2,"[1, 0]",undefined,,0,True,exh-subclausal,True,response,13.846333333333334,There is a star.,"[6, 3, 1]",,0,,True,"[2, 4, 7]",1607,0,,"[1, 0]",,There is a tick.,1,0,"[0, 0, 0]","[6, 0, 4]",0
4328,2,4 + 9 = ?,"[3, 0, 0]",2,"[1, 0]",undefined,,0,True,exh-subclausal,True,filler,13.846333333333334,5 + 9 = ?,"[13, 4, 9]",,1,,True,"[8, 1, 5]",1088,1,,"[0, 1]",,There is a note.,3,0,"[8, 0, 0]","[14, 5, 9]",1
3639,2,There are four spades.,"[0, 0, 0]",1,"[0, 1]",undefined,,1,True,exh-subclausal,True,response,13.846333333333334,There are four diamonds.,"[3, 9, 4]",,0,,True,"[3, 9, 7]",958,0,,"[1, 0]",,There are four spades.,0,1,"[0, 0, 0]","[0, 6, 2]",0
6032,2,Some but not all of the symbols are diamonds.,"[0, 0, 0]",0,"[1, 0]",undefined,,0,True,exh-subclausal,True,response,13.846333333333334,Some but not all of the symbols are triangles.,"[0, 8, 6]",,0,,True,"[7, 2, 8]",3439,0,,"[1, 0]",,Some of the symbols are circles.,2,0,"[0, 0, 0]","[9, 0, 6]",0
4904,2,There is a heart but nothing else.,"[0, 0, 0]",2,"[0, 1]",undefined,,1,True,exh-subclausal,True,filler,13.846333333333334,There is a square but nothing else.,"[4, 1, 0]",,0,,True,"[5, 0, 6]",1574,0,,"[1, 0]",,There is a square.,2,1,"[0, 0, 0]","[5, 0, 7]",1
5369,2,8 + 0 = ?,"[0, 0, 0]",0,"[0, 1]",undefined,,1,False,exh-subclausal,True,response,13.846333333333334,2 + 2 = ?,"[8, 8, 0]",,0,,False,"[3, 0, 2]",2544,1,,"[0, 1]",,Some of the symbols are spades.,3,1,"[1, 0, 0]","[4, 2, 2]",0
4103,2,There are four circles.,"[0, 0, 0]",1,"[0, 1]",undefined,,1,True,exh-subclausal,True,response,13.846333333333334,There are four ticks.,"[7, 2, 9]",,1,,True,"[3, 8, 2]",1590,1,,"[0, 1]",,There are four spades.,1,1,"[0, 0, 0]","[2, 7, 0]",0
3600,2,There is a diamond but nothing else.,"[0, 0, 0]",2,"[0, 1]",undefined,,1,True,exh-subclausal,True,filler,13.846333333333334,There is a note but nothing else.,"[0, 1, 9]",,0,,True,"[8, 5, 4]",1175,0,,"[1, 0]",,There is a note.,2,1,"[0, 0, 0]","[8, 3, 2]",1
3992,2,4 + 5 = ?,"[5, 0, 0]",2,"[1, 0]",undefined,,1,False,exh-subclausal,False,response,13.846333333333334,4 + 2 = ?,"[9, 4, 5]",,0,,False,"[1, 5, 7]",1495,1,,"[0, 1]",,There is a club.,3,0,"[10, 0, 0]","[6, 4, 2]",0
5671,2,Some but not all of the symbols are hearts.,"[0, 0, 0]",0,"[0, 1]",undefined,,1,True,exh-subclausal,True,response,13.846333333333334,Some but not all of the symbols are diamonds.,"[4, 1, 8]",,0,,True,"[6, 5, 1]",1078,0,,"[1, 0]",,Some of the symbols are stars.,2,1,"[0, 0, 0]","[0, 2, 3]",0
3527,2,There are four clubs.,"[0, 0, 0]",1,"[1, 0]",undefined,,0,True,exh-subclausal,True,response,13.846333333333334,There are four circles.,"[1, 8, 2]",,0,,True,"[7, 0, 5]",1191,0,,"[1, 0]",,There are four circles.,0,0,"[0, 0, 0]","[7, 1, 4]",0
,3,,,,,undefined,bot_check,,,,,,13.650866666666667,,,,,1,,,,,"[0, 'susan']",,Susan,,,,,,
21640,3,Some of the symbols are squares.,"[0, 0, 0]",0,"[1, 0]",undefined,,0,True,exh-subclausal,True,response,13.650866666666667,Some of the symbols are clubs.,"[5, 7, 1]",,1,,True,"[9, 7, 1]",10112,1,,"[0, 1]",,Some of the symbols are triangles.,0,0,"[0, 0, 0]","[1, 0, 7]",0
8671,3,There are four notes.,"[0, 0, 0]",1,"[0, 1]",undefined,,1,True,exh-subclausal,True,response,13.650866666666667,There are four hearts.,"[8, 6, 4]",,0,,True,"[6, 8, 7]",2718,0,,"[1, 0]",,There are four stars.,0,1,"[0, 0, 0]","[4, 0, 7]",0
10326,3,9 + 0 = ?,"[4, 0, 0]",0,"[0, 1]",undefined,,0,False,exh-subclausal,False,filler,13.650866666666667,9 + 2 = ?,"[9, 9, 0]",,1,,False,"[8, 4, 1]",4134,0,,"[1, 0]",,Some of the symbols are notes.,3,1,"[4, 0, 0]","[11, 9, 2]",1
7807,3,There is a club.,"[0, 0, 0]",2,"[1, 0]",undefined,,0,True,exh-subclausal,True,filler,13.650866666666667,There is a club.,"[1, 3, 5]",,0,,True,"[8, 2, 4]",2418,0,,"[1, 0]",,There is a note.,0,0,"[0, 0, 0]","[1, 8, 6]",0
13046,3,There is a club but nothing else.,"[0, 0, 0]",2,"[1, 0]",undefined,,0,True,exh-subclausal,True,response,13.650866666666667,There is a star but nothing else.,"[1, 7, 2]",,0,,True,"[4, 9, 7]",2952,0,,"[1, 0]",,There is a heart.,2,0,"[0, 0, 0]","[6, 1, 7]",0
6004,3,There are four ticks.,"[0, 0, 0]",1,"[1, 0]",undefined,,0,True,exh-subclausal,True,filler,13.650866666666667,There are four ticks.,"[2, 3, 8]",,0,,True,"[2, 8, 6]",1964,0,,"[1, 0]",,There are four ticks.,0,0,"[0, 0, 0]","[2, 0, 9]",1
7133,3,Some of the symbols are ticks.,"[0, 0, 0]",0,"[0, 1]",undefined,,1,True,exh-subclausal,True,filler,13.650866666666667,Some of the symbols are triangles.,"[2, 7, 3]",,1,,True,"[1, 2, 7]",2742,1,,"[0, 1]",,Some of the symbols are clubs.,1,1,"[0, 0, 0]","[9, 1, 4]",1
5277,3,There is a circle.,"[0, 0, 0]",2,"[0, 1]",undefined,,1,True,exh-subclausal,True,response,13.650866666666667,There is a triangle.,"[7, 1, 9]",,1,,True,"[2, 5, 6]",2391,1,,"[0, 1]",,There is a tick.,1,1,"[0, 0, 0]","[9, 7, 4]",0
6511,3,There are four ticks.,"[0, 0, 0]",1,"[0, 1]",undefined,,1,True,exh-subclausal,True,response,13.650866666666667,There are four squares.,"[2, 1, 5]",,0,,True,"[4, 6, 0]",1935,0,,"[1, 0]",,There are four hearts.,1,1,"[0, 0, 0]","[5, 7, 1]",0
10355,3,There are four but no more than four stars.,"[0, 0, 0]",1,"[1, 0]",undefined,,0,True,exh-subclausal,True,response,13.650866666666667,There are four but no more than four clubs.,"[6, 9, 7]",,1,,True,"[5, 0, 4]",3448,1,,"[0, 1]",,There are four squares.,2,0,"[0, 0, 0]","[1, 8, 7]",0
7048,3,There is a club.,"[0, 0, 0]",2,"[0, 1]",undefined,,1,True,exh-subclausal,True,response,13.650866666666667,There is a diamond.,"[1, 5, 0]",,1,,True,"[5, 8, 0]",2649,1,,"[0, 1]",,There is a square.,0,1,"[0, 0, 0]","[0, 6, 9]",0
7208,3,4 + 3 = ?,"[8, 0, 0]",1,"[0, 1]",undefined,,1,False,exh-subclausal,True,response,13.650866666666667,3 + 3 = ?,"[7, 4, 3]",,0,,False,"[0, 2, 1]",2045,1,,"[0, 1]",,There are four diamonds.,3,1,"[6, 0, 0]","[6, 3, 3]",0
8088,3,Some of the symbols are clubs.,"[0, 0, 0]",0,"[0, 1]",undefined,,1,True,exh-subclausal,True,response,13.650866666666667,Some of the symbols are stars.,"[1, 7, 4]",,1,,True,"[4, 3, 6]",3043,1,,"[0, 1]",,Some of the symbols are hearts.,1,1,"[0, 0, 0]","[6, 1, 7]",0
12096,3,Some of the symbols are spades.,"[0, 0, 0]",0,"[0, 1]",undefined,,1,True,exh-subclausal,True,filler,13.650866666666667,Some of the symbols are triangles.,"[3, 7, 0]",,0,,True,"[5, 6, 2]",4160,0,,"[1, 0]",,Some of the symbols are squares.,0,1,"[0, 0, 0]","[9, 3, 8]",1
8285,3,There is a heart.,"[0, 0, 0]",2,"[1, 0]",undefined,,0,True,exh-subclausal,True,filler,13.650866666666667,There is a square.,"[4, 3, 0]",,1,,True,"[9, 1, 6]",3123,1,,"[0, 1]",,There is a triangle.,1,0,"[0, 0, 0]","[5, 8, 2]",1
8930,3,There is a diamond.,"[0, 0, 0]",2,"[0, 1]",undefined,,1,True,exh-subclausal,True,filler,13.650866666666667,There is a spade.,"[0, 9, 1]",,0,,True,"[6, 2, 9]",3248,0,,"[1, 0]",,There is a star.,0,1,"[0, 0, 0]","[3, 4, 8]",1
6986,3,6 + 4 = ?,"[0, 0, 0]",2,"[0, 1]",undefined,,0,False,exh-subclausal,False,response,13.650866666666667,4 + 5 = ?,"[10, 6, 4]",,1,,False,"[8, 5, 1]",2961,0,,"[1, 0]",,There is a note.,3,1,"[4, 0, 0]","[9, 4, 5]",0
6657,3,2 + 6 = ?,"[8, 0, 0]",2,"[1, 0]",undefined,,1,False,exh-subclausal,False,response,13.650866666666667,1 + 6 = ?,"[8, 2, 6]",,0,,False,"[2, 6, 5]",1914,1,,"[0, 1]",,There is a tick.,3,0,"[9, 0, 0]","[7, 1, 6]",0
7982,3,There is a spade but nothing else.,"[0, 0, 0]",2,"[0, 1]",undefined,,1,True,exh-subclausal,True,filler,13.650866666666667,There is a diamond but nothing else.,"[3, 6, 9]",,1,,True,"[9, 8, 3]",2847,1,,"[0, 1]",,There is a triangle.,2,1,"[0, 0, 0]","[0, 1, 3]",1
7461,3,Some but not all of the symbols are ticks.,"[0, 0, 0]",0,"[1, 0]",undefined,,0,True,exh-subclausal,True,response,13.650866666666667,Some but not all of the symbols are notes.,"[2, 5, 6]",,1,,True,"[7, 2, 8]",3210,1,,"[0, 1]",,Some of the symbols are circles.,2,0,"[0, 0, 0]","[8, 5, 9]",0
7986,3,There are four but no more than four spades.,"[0, 0, 0]",1,"[1, 0]",undefined,,0,True,exh-subclausal,True,filler,13.650866666666667,There are four but no more than four diamonds.,"[3, 2, 0]",,0,,True,"[0, 5, 1]",2575,0,,"[1, 0]",,There are four diamonds.,2,0,"[0, 0, 0]","[0, 6, 4]",1
6908,3,There is a note but nothing else.,"[0, 0, 0]",2,"[0, 1]",undefined,,1,True,exh-subclausal,True,filler,13.650866666666667,There is a diamond but nothing else.,"[8, 9, 6]",,1,,True,"[4, 9, 8]",2446,1,,"[0, 1]",,There is a heart.,2,1,"[0, 0, 0]","[0, 4, 3]",1
6855,3,There are four but no more than four diamonds.,"[0, 0, 0]",1,"[1, 0]",undefined,,0,True,exh-subclausal,True,filler,13.650866666666667,There are four but no more than four stars.,"[0, 5, 2]",,0,,True,"[9, 1, 2]",2174,0,,"[1, 0]",,There are four triangles.,2,0,"[0, 0, 0]","[6, 1, 3]",1
7730,3,Some of the symbols are hearts.,"[0, 0, 0]",0,"[1, 0]",undefined,,0,True,exh-subclausal,True,response,13.650866666666667,Some of the symbols are ticks.,"[4, 0, 6]",,0,,True,"[3, 8, 1]",2972,0,,"[1, 0]",,Some of the symbols are spades.,0,0,"[0, 0, 0]","[2, 3, 8]",0
7335,3,Some of the symbols are clubs.,"[0, 0, 0]",0,"[0, 1]",undefined,,1,True,exh-subclausal,True,response,13.650866666666667,Some of the symbols are hearts.,"[1, 4, 5]",,0,,True,"[0, 6, 9]",2293,0,,"[1, 0]",,Some of the symbols are diamonds.,1,1,"[0, 0, 0]","[4, 3, 2]",0
8806,3,Some of the symbols are diamonds.,"[0, 0, 0]",0,"[0, 1]",undefined,,1,True,exh-subclausal,True,response,13.650866666666667,Some of the symbols are diamonds.,"[0, 9, 1]",,1,,True,"[5, 9, 4]",2964,1,,"[0, 1]",,Some of the symbols are squares.,0,1,"[0, 0, 0]","[0, 5, 9]",0
9658,3,Some of the symbols are triangles.,"[0, 0, 0]",0,"[1, 0]",undefined,,0,True,exh-subclausal,True,filler,13.650866666666667,Some of the symbols are clubs.,"[9, 3, 8]",,1,,True,"[6, 2, 9]",2539,1,,"[0, 1]",,Some of the symbols are stars.,0,0,"[0, 0, 0]","[1, 6, 7]",1
7500,3,There are four notes.,"[0, 0, 0]",1,"[0, 1]",undefined,,1,True,exh-subclausal,True,response,13.650866666666667,There are four notes.,"[8, 0, 2]",,0,,True,"[1, 0, 7]",3536,0,,"[1, 0]",,There are four clubs.,0,1,"[0, 0, 0]","[8, 9, 3]",0
7789,3,There are four but no more than four squares.,"[0, 0, 0]",1,"[1, 0]",undefined,,0,True,exh-subclausal,True,filler,13.650866666666667,There are four but no more than four diamonds.,"[5, 3, 6]",,1,,True,"[1, 6, 2]",3013,1,,"[0, 1]",,There are four clubs.,2,0,"[0, 0, 0]","[0, 3, 6]",1
10026,3,Some of the symbols are clubs.,"[0, 0, 0]",0,"[1, 0]",undefined,,0,True,exh-subclausal,True,filler,13.650866666666667,Some of the symbols are clubs.,"[1, 4, 7]",,0,,True,"[1, 4, 0]",4530,0,,"[1, 0]",,Some of the symbols are clubs.,0,0,"[0, 0, 0]","[1, 8, 9]",1
8702,3,There is a star.,"[0, 0, 0]",2,"[0, 1]",undefined,,1,True,exh-subclausal,True,filler,13.650866666666667,There is a spade.,"[6, 2, 8]",,0,,True,"[2, 3, 1]",3303,0,,"[1, 0]",,There is a tick.,1,1,"[0, 0, 0]","[3, 8, 2]",1
8975,3,There is a triangle.,"[0, 0, 0]",2,"[1, 0]",undefined,,0,True,exh-subclausal,True,filler,13.650866666666667,There is a heart.,"[9, 4, 0]",,1,,True,"[7, 6, 1]",1996,1,,"[0, 1]",,There is a circle.,0,0,"[0, 0, 0]","[4, 8, 1]",1
5154,3,There are four circles.,"[0, 0, 0]",1,"[1, 0]",undefined,,0,True,exh-subclausal,True,filler,13.650866666666667,There are four diamonds.,"[7, 9, 2]",,0,,True,"[5, 6, 4]",2212,0,,"[1, 0]",,There are four squares.,1,0,"[0, 0, 0]","[0, 9, 2]",1
5489,3,1 + 6 = ?,"[9, 0, 0]",1,"[1, 0]",undefined,,1,True,exh-subclausal,False,filler,13.650866666666667,8 + 2 = ?,"[7, 1, 6]",,0,,False,"[4, 1, 6]",1929,0,,"[1, 0]",,There are four hearts.,3,0,"[2, 0, 0]","[10, 8, 2]",1
7467,3,There is a triangle.,"[0, 0, 0]",2,"[0, 1]",undefined,,1,True,exh-subclausal,True,response,13.650866666666667,There is a star.,"[9, 2, 0]",,0,,True,"[9, 5, 1]",3626,0,,"[1, 0]",,There is a triangle.,1,1,"[0, 0, 0]","[6, 1, 4]",0
7358,3,There are four spades.,"[0, 0, 0]",1,"[1, 0]",undefined,,0,True,exh-subclausal,True,filler,13.650866666666667,There are four notes.,"[3, 0, 2]",,1,,True,"[4, 0, 6]",2094,1,,"[0, 1]",,There are four hearts.,0,0,"[0, 0, 0]","[8, 2, 3]",1
9583,3,Some but not all of the symbols are stars.,"[0, 0, 0]",0,"[0, 1]",undefined,,1,True,exh-subclausal,True,filler,13.650866666666667,Some but not all of the symbols are notes.,"[6, 3, 8]",,0,,True,"[0, 2, 5]",3556,0,,"[1, 0]",,Some of the symbols are diamonds.,2,1,"[0, 0, 0]","[8, 5, 6]",1
6928,3,Some of the symbols are spades.,"[0, 0, 0]",0,"[0, 1]",undefined,,1,True,exh-subclausal,True,filler,13.650866666666667,Some of the symbols are triangles.,"[3, 7, 9]",,1,,True,"[5, 0, 7]",1936,1,,"[0, 1]",,Some of the symbols are squares.,1,1,"[0, 0, 0]","[9, 6, 3]",1
8239,3,There are four but no more than four diamonds.,"[0, 0, 0]",1,"[0, 1]",undefined,,1,True,exh-subclausal,True,response,13.650866666666667,There are four but no more than four diamonds.,"[0, 1, 6]",,0,,True,"[8, 7, 6]",2616,0,,"[1, 0]",,There are four notes.,2,1,"[0, 0, 0]","[0, 4, 6]",0
13734,3,There is a spade.,"[0, 0, 0]",2,"[0, 1]",undefined,,1,True,exh-subclausal,True,filler,13.650866666666667,There is a circle.,"[3, 9, 5]",,1,,True,"[2, 3, 0]",2084,1,,"[0, 1]",,There is a tick.,0,1,"[0, 0, 0]","[7, 5, 4]",1
10485,3,Some but not all of the symbols are diamonds.,"[0, 0, 0]",0,"[1, 0]",undefined,,0,True,exh-subclausal,True,filler,13.650866666666667,Some but not all of the symbols are stars.,"[0, 8, 9]",,1,,True,"[7, 9, 2]",4270,1,,"[0, 1]",,Some of the symbols are circles.,2,0,"[0, 0, 0]","[6, 4, 7]",1
6592,3,Some but not all of the symbols are notes.,"[0, 0, 0]",0,"[1, 0]",undefined,,0,True,exh-subclausal,True,filler,13.650866666666667,Some but not all of the symbols are triangles.,"[8, 9, 5]",,0,,True,"[4, 6, 3]",1842,0,,"[1, 0]",,Some of the symbols are hearts.,2,0,"[0, 0, 0]","[9, 4, 0]",1
6596,3,There are four diamonds.,"[0, 0, 0]",1,"[1, 0]",undefined,,0,True,exh-subclausal,True,response,13.650866666666667,There are four hearts.,"[0, 1, 8]",,1,,True,"[8, 3, 9]",2479,1,,"[0, 1]",,There are four notes.,0,0,"[0, 0, 0]","[4, 9, 5]",0
5933,3,There are four but no more than four ticks.,"[0, 0, 0]",1,"[0, 1]",undefined,,1,True,exh-subclausal,True,filler,13.650866666666667,There are four but no more than four diamonds.,"[2, 4, 8]",,0,,True,"[8, 5, 9]",2115,0,,"[1, 0]",,There are four notes.,2,1,"[0, 0, 0]","[0, 3, 9]",1
9281,3,Some of the symbols are diamonds.,"[0, 0, 0]",0,"[0, 1]",undefined,,1,True,exh-subclausal,True,response,13.650866666666667,Some of the symbols are squares.,"[0, 4, 9]",,1,,True,"[4, 0, 1]",3724,1,,"[0, 1]",,Some of the symbols are hearts.,1,1,"[0, 0, 0]","[5, 4, 1]",0
5699,3,There are four hearts.,"[0, 0, 0]",1,"[1, 0]",undefined,,0,True,exh-subclausal,True,response,13.650866666666667,There are four circles.,"[4, 8, 2]",,0,,True,"[2, 5, 8]",1959,0,,"[1, 0]",,There are four ticks.,1,0,"[0, 0, 0]","[7, 0, 8]",0
7936,3,1 + 2 = ?,"[3, 0, 0]",1,"[0, 1]",undefined,,0,False,exh-subclausal,False,filler,13.650866666666667,0 + 9 = ?,"[3, 1, 2]",,1,,False,"[2, 7, 0]",3752,0,,"[1, 0]",,There are four ticks.,3,1,"[1, 0, 0]","[9, 0, 9]",1
18438,3,6 + 7 = ?,"[7, 0, 0]",2,"[0, 1]",undefined,,1,False,exh-subclausal,True,filler,13.650866666666667,7 + 0 = ?,"[13, 6, 7]",,0,,False,"[9, 7, 0]",4084,1,,"[0, 1]",,There is a triangle.,3,1,"[5, 0, 0]","[7, 7, 0]",1
8691,3,There is a diamond.,"[0, 0, 0]",2,"[1, 0]",undefined,,0,True,exh-subclausal,True,filler,13.650866666666667,There is a heart.,"[0, 1, 6]",,1,,True,"[7, 1, 4]",2335,1,,"[0, 1]",,There is a circle.,1,0,"[0, 0, 0]","[4, 0, 7]",1
14504,3,4 + 8 = ?,"[4, 0, 0]",2,"[0, 1]",undefined,,1,True,exh-subclausal,True,filler,13.650866666666667,6 + 6 = ?,"[12, 4, 8]",,0,,True,"[9, 8, 4]",9266,0,,"[1, 0]",,There is a triangle.,3,1,"[7, 0, 0]","[12, 6, 6]",1
8029,3,Some of the symbols are diamonds.,"[0, 0, 0]",0,"[1, 0]",undefined,,0,True,exh-subclausal,True,filler,13.650866666666667,Some of the symbols are triangles.,"[0, 8, 5]",,1,,True,"[6, 3, 9]",2947,1,,"[0, 1]",,Some of the symbols are stars.,1,0,"[0, 0, 0]","[9, 6, 5]",1
10250,3,Some of the symbols are triangles.,"[0, 0, 0]",0,"[0, 1]",undefined,,1,True,exh-subclausal,True,filler,13.650866666666667,Some of the symbols are diamonds.,"[9, 0, 5]",,1,,True,"[5, 3, 7]",2163,1,,"[0, 1]",,Some of the symbols are squares.,1,1,"[0, 0, 0]","[0, 7, 9]",1
10838,3,There are four diamonds.,"[0, 0, 0]",1,"[0, 1]",undefined,,1,True,exh-subclausal,True,response,13.650866666666667,There are four notes.,"[0, 4, 7]",,0,,True,"[8, 0, 2]",5118,0,,"[1, 0]",,There are four notes.,0,1,"[0, 0, 0]","[8, 3, 5]",0
7232,3,6 + 0 = ?,"[4, 0, 0]",0,"[0, 1]",undefined,,1,False,exh-subclausal,True,response,13.650866666666667,4 + 6 = ?,"[6, 6, 0]",,0,,False,"[3, 7, 8]",2851,1,,"[0, 1]",,Some of the symbols are spades.,3,1,"[7, 0, 0]","[10, 4, 6]",0
9692,3,There is a note.,"[0, 0, 0]",2,"[1, 0]",undefined,,0,True,exh-subclausal,True,response,13.650866666666667,There is a note.,"[8, 3, 2]",,1,,True,"[2, 3, 5]",2943,1,,"[0, 1]",,There is a tick.,0,0,"[0, 0, 0]","[8, 1, 4]",0
7322,3,5 + 4 = ?,"[0, 0, 0]",2,"[1, 0]",undefined,,0,False,exh-subclausal,True,filler,13.650866666666667,1 + 0 = ?,"[9, 5, 4]",,1,,False,"[4, 8, 2]",2542,0,,"[1, 0]",,There is a heart.,3,0,"[1, 0, 0]","[1, 1, 0]",1
7423,3,3 + 8 = ?,"[1, 0, 0]",1,"[0, 1]",undefined,,1,True,exh-subclausal,True,filler,13.650866666666667,2 + 5 = ?,"[11, 3, 8]",,0,,True,"[5, 9, 0]",3665,0,,"[1, 0]",,There are four squares.,3,1,"[1, 0, 0]","[7, 2, 5]",1
5586,3,3 + 7 = ?,"[2, 0, 0]",0,"[1, 0]",undefined,,0,True,exh-subclausal,True,response,13.650866666666667,3 + 1 = ?,"[10, 3, 7]",,1,,True,"[0, 5, 4]",1558,1,,"[0, 1]",,Some of the symbols are diamonds.,3,0,"[9, 0, 0]","[4, 3, 1]",0
6669,3,There are four but no more than four ticks.,"[0, 0, 0]",1,"[1, 0]",undefined,,0,True,exh-subclausal,True,response,13.650866666666667,There are four but no more than four circles.,"[2, 7, 6]",,1,,True,"[9, 2, 3]",2398,1,,"[0, 1]",,There are four triangles.,2,0,"[0, 0, 0]","[7, 6, 1]",0
5862,3,8 + 3 = ?,"[5, 0, 0]",0,"[1, 0]",undefined,,0,False,exh-subclausal,True,response,13.650866666666667,5 + 5 = ?,"[11, 8, 3]",,1,,False,"[1, 6, 8]",2897,0,,"[1, 0]",,Some of the symbols are clubs.,3,0,"[1, 0, 0]","[10, 5, 5]",0
6422,3,0 + 3 = ?,"[6, 0, 0]",1,"[0, 1]",undefined,,1,True,exh-subclausal,True,response,13.650866666666667,7 + 0 = ?,"[3, 0, 3]",,0,,True,"[2, 5, 0]",1709,0,,"[1, 0]",,There are four ticks.,3,1,"[0, 0, 0]","[7, 7, 0]",0
6813,3,There are four notes.,"[0, 0, 0]",1,"[1, 0]",undefined,,0,True,exh-subclausal,True,filler,13.650866666666667,There are four diamonds.,"[8, 5, 1]",,0,,True,"[9, 7, 3]",1943,0,,"[1, 0]",,There are four triangles.,0,0,"[0, 0, 0]","[0, 4, 3]",1
13374,3,0 + 9 = ?,"[1, 0, 0]",0,"[1, 0]",undefined,,1,False,exh-subclausal,False,filler,13.650866666666667,2 + 9 = ?,"[9, 0, 9]",,0,,False,"[9, 5, 1]",3597,1,,"[0, 1]",,Some of the symbols are triangles.,3,0,"[8, 0, 0]","[11, 2, 9]",1
8179,3,Some but not all of the symbols are ticks.,"[0, 0, 0]",0,"[1, 0]",undefined,,0,True,exh-subclausal,True,response,13.650866666666667,Some but not all of the symbols are stars.,"[2, 1, 0]",,1,,True,"[3, 7, 9]",2743,1,,"[0, 1]",,Some of the symbols are spades.,2,0,"[0, 0, 0]","[6, 5, 3]",0
9403,3,There are four but no more than four clubs.,"[0, 0, 0]",1,"[0, 1]",undefined,,1,True,exh-subclausal,True,response,13.650866666666667,There are four but no more than four stars.,"[1, 2, 0]",,0,,True,"[7, 9, 1]",3053,0,,"[1, 0]",,There are four circles.,2,1,"[0, 0, 0]","[6, 2, 3]",0
7501,3,2 + 5 = ?,"[2, 0, 0]",2,"[0, 1]",undefined,,0,True,exh-subclausal,False,filler,13.650866666666667,1 + 8 = ?,"[7, 2, 5]",,1,,False,"[4, 9, 8]",3105,1,,"[0, 1]",,There is a heart.,3,1,"[5, 0, 0]","[9, 1, 8]",1
5854,3,There are four notes.,"[0, 0, 0]",1,"[1, 0]",undefined,,0,True,exh-subclausal,True,filler,13.650866666666667,There are four spades.,"[8, 0, 9]",,0,,True,"[2, 5, 6]",1864,0,,"[1, 0]",,There are four ticks.,0,0,"[0, 0, 0]","[3, 7, 9]",1
7787,3,There are four clubs.,"[0, 0, 0]",1,"[1, 0]",undefined,,0,True,exh-subclausal,True,response,13.650866666666667,There are four stars.,"[1, 0, 5]",,1,,True,"[6, 9, 5]",2016,1,,"[0, 1]",,There are four stars.,1,0,"[0, 0, 0]","[6, 3, 5]",0
6448,3,There is a spade.,"[0, 0, 0]",2,"[1, 0]",undefined,,0,True,exh-subclausal,True,response,13.650866666666667,There is a heart.,"[3, 1, 5]",,0,,True,"[3, 2, 6]",2358,0,,"[1, 0]",,There is a spade.,1,0,"[0, 0, 0]","[4, 9, 5]",0
5419,3,8 + 0 = ?,"[0, 0, 0]",2,"[1, 0]",undefined,,1,True,exh-subclausal,False,response,13.650866666666667,7 + 7 = ?,"[8, 8, 0]",,0,,False,"[7, 8, 5]",2176,0,,"[1, 0]",,There is a circle.,3,0,"[1, 0, 0]","[14, 7, 7]",0
8255,3,Some but not all of the symbols are spades.,"[0, 0, 0]",0,"[0, 1]",undefined,,1,True,exh-subclausal,True,response,13.650866666666667,Some but not all of the symbols are ticks.,"[3, 2, 4]",,1,,True,"[8, 5, 1]",3166,1,,"[0, 1]",,Some of the symbols are notes.,2,1,"[0, 0, 0]","[2, 1, 6]",0
7702,3,9 + 2 = ?,"[2, 0, 0]",0,"[0, 1]",undefined,,1,False,exh-subclausal,True,filler,13.650866666666667,1 + 8 = ?,"[11, 9, 2]",,0,,False,"[5, 3, 0]",3706,1,,"[0, 1]",,Some of the symbols are squares.,3,1,"[5, 0, 0]","[9, 1, 8]",1
7124,3,1 + 6 = ?,"[7, 0, 0]",0,"[0, 1]",undefined,,1,True,exh-subclausal,True,filler,13.650866666666667,7 + 0 = ?,"[7, 1, 6]",,1,,True,"[4, 9, 0]",3111,1,,"[0, 1]",,Some of the symbols are hearts.,3,1,"[4, 0, 0]","[7, 7, 0]",1
6800,3,7 + 1 = ?,"[5, 0, 0]",1,"[1, 0]",undefined,,0,False,exh-subclausal,True,response,13.650866666666667,8 + 4 = ?,"[8, 7, 1]",,1,,False,"[4, 0, 9]",1835,0,,"[1, 0]",,There are four hearts.,3,0,"[0, 0, 0]","[12, 8, 4]",0
7321,3,5 + 8 = ?,"[7, 0, 0]",1,"[0, 1]",undefined,,1,True,exh-subclausal,True,filler,13.650866666666667,2 + 3 = ?,"[13, 5, 8]",,0,,True,"[9, 4, 0]",2695,0,,"[1, 0]",,There are four triangles.,3,1,"[6, 0, 0]","[5, 2, 3]",1
7193,3,Some of the symbols are diamonds.,"[0, 0, 0]",0,"[1, 0]",undefined,,0,True,exh-subclausal,True,response,13.650866666666667,Some of the symbols are hearts.,"[0, 1, 8]",,0,,True,"[5, 8, 2]",2030,0,,"[1, 0]",,Some of the symbols are squares.,0,0,"[0, 0, 0]","[4, 0, 7]",0
5238,3,There are four triangles.,"[0, 0, 0]",1,"[0, 1]",undefined,,1,True,exh-subclausal,True,filler,13.650866666666667,There are four squares.,"[9, 2, 7]",,1,,True,"[2, 9, 5]",1776,1,,"[0, 1]",,There are four ticks.,1,1,"[0, 0, 0]","[5, 6, 0]",1
9356,3,6 + 2 = ?,"[7, 0, 0]",0,"[0, 1]",undefined,,1,True,exh-subclausal,True,response,13.650866666666667,2 + 8 = ?,"[8, 6, 2]",,0,,True,"[3, 6, 1]",4288,0,,"[1, 0]",,Some of the symbols are spades.,3,1,"[9, 0, 0]","[10, 2, 8]",0
6536,3,There is a heart but nothing else.,"[0, 0, 0]",2,"[0, 1]",undefined,,1,True,exh-subclausal,True,response,13.650866666666667,There is a star but nothing else.,"[4, 5, 2]",,1,,True,"[4, 0, 2]",1652,1,,"[0, 1]",,There is a heart.,2,1,"[0, 0, 0]","[6, 8, 1]",0
6314,3,There is a star.,"[0, 0, 0]",2,"[1, 0]",undefined,,0,True,exh-subclausal,True,response,13.650866666666667,There is a spade.,"[6, 4, 1]",,1,,True,"[3, 5, 1]",2652,1,,"[0, 1]",,There is a spade.,0,0,"[0, 0, 0]","[3, 8, 1]",0
7058,3,There is a triangle.,"[0, 0, 0]",2,"[0, 1]",undefined,,1,True,exh-subclausal,True,filler,13.650866666666667,There is a note.,"[9, 4, 1]",,0,,True,"[5, 4, 0]",2167,0,,"[1, 0]",,There is a square.,1,1,"[0, 0, 0]","[8, 7, 4]",1
8323,3,There is a heart.,"[0, 0, 0]",2,"[1, 0]",undefined,,0,True,exh-subclausal,True,response,13.650866666666667,There is a spade.,"[4, 3, 2]",,0,,True,"[1, 5, 6]",2602,0,,"[1, 0]",,There is a club.,0,0,"[0, 0, 0]","[3, 1, 0]",0
8646,3,There is a club but nothing else.,"[0, 0, 0]",2,"[0, 1]",undefined,,1,True,exh-subclausal,True,filler,13.650866666666667,There is a heart but nothing else.,"[1, 0, 3]",,1,,True,"[7, 8, 4]",3244,1,,"[0, 1]",,There is a circle.,2,1,"[0, 0, 0]","[4, 8, 6]",1
6876,3,Some of the symbols are hearts.,"[0, 0, 0]",0,"[1, 0]",undefined,,0,True,exh-subclausal,True,filler,13.650866666666667,Some of the symbols are hearts.,"[4, 7, 9]",,0,,True,"[3, 7, 2]",2307,0,,"[1, 0]",,Some of the symbols are spades.,0,0,"[0, 0, 0]","[4, 5, 7]",1
8491,3,There is a heart but nothing else.,"[0, 0, 0]",2,"[0, 1]",undefined,,1,True,exh-subclausal,True,response,13.650866666666667,There is a spade but nothing else.,"[4, 2, 0]",,1,,True,"[1, 2, 8]",1479,1,,"[0, 1]",,There is a club.,2,1,"[0, 0, 0]","[3, 5, 8]",0
5487,3,There is a diamond but nothing else.,"[0, 0, 0]",2,"[1, 0]",undefined,,0,True,exh-subclausal,True,filler,13.650866666666667,There is a tick but nothing else.,"[0, 6, 3]",,1,,True,"[3, 2, 1]",2670,1,,"[0, 1]",,There is a spade.,2,0,"[0, 0, 0]","[2, 0, 8]",1
3064,3,There are four diamonds.,"[0, 0, 0]",1,"[1, 0]",undefined,,0,True,exh-subclausal,True,filler,13.650866666666667,There are four circles.,"[0, 7, 4]",,1,,True,"[8, 0, 2]",1111,1,,"[0, 1]",,There are four notes.,1,0,"[0, 0, 0]","[7, 5, 2]",1
5824,3,There are four squares.,"[0, 0, 0]",1,"[0, 1]",undefined,,1,True,exh-subclausal,True,filler,13.650866666666667,There are four stars.,"[5, 1, 8]",,0,,True,"[3, 5, 7]",1071,0,,"[1, 0]",,There are four spades.,1,1,"[0, 0, 0]","[6, 7, 8]",1
3400,3,There is a square but nothing else.,"[0, 0, 0]",2,"[1, 0]",undefined,,0,True,exh-subclausal,True,response,13.650866666666667,There is a star but nothing else.,"[5, 0, 9]",,0,,True,"[7, 2, 8]",1151,0,,"[1, 0]",,There is a circle.,2,0,"[0, 0, 0]","[6, 3, 1]",0
3720,3,9 + 0 = ?,"[0, 0, 0]",1,"[0, 1]",undefined,,0,False,exh-subclausal,False,response,13.650866666666667,3 + 4 = ?,"[9, 9, 0]",,1,,False,"[5, 1, 0]",2103,0,,"[1, 0]",,There are four squares.,3,1,"[5, 0, 0]","[7, 3, 4]",0
2896,3,8 + 1 = ?,"[9, 0, 0]",2,"[0, 1]",undefined,,0,True,exh-subclausal,False,response,13.650866666666667,2 + 8 = ?,"[9, 8, 1]",,1,,False,"[9, 5, 4]",1095,1,,"[0, 1]",,There is a triangle.,3,1,"[7, 0, 0]","[10, 2, 8]",0
2968,3,There is a square.,"[0, 0, 0]",2,"[0, 1]",undefined,,1,True,exh-subclausal,True,response,13.650866666666667,There is a club.,"[5, 2, 9]",,1,,True,"[4, 3, 0]",1016,1,,"[0, 1]",,There is a heart.,1,1,"[0, 0, 0]","[1, 7, 3]",0
3808,3,There are four spades.,"[0, 0, 0]",1,"[1, 0]",undefined,,0,True,exh-subclausal,True,response,13.650866666666667,There are four spades.,"[3, 6, 1]",,1,,True,"[1, 9, 6]",1423,1,,"[0, 1]",,There are four clubs.,1,0,"[0, 0, 0]","[3, 9, 6]",0
4697,3,Some of the symbols are diamonds.,"[0, 0, 0]",0,"[1, 0]",undefined,,0,True,exh-subclausal,True,response,13.650866666666667,Some of the symbols are ticks.,"[0, 6, 3]",,0,,True,"[0, 9, 6]",1623,0,,"[1, 0]",,Some of the symbols are diamonds.,1,0,"[0, 0, 0]","[2, 7, 8]",0
6432,3,Some but not all of the symbols are triangles.,"[0, 0, 0]",0,"[1, 0]",undefined,,0,True,exh-subclausal,True,filler,13.650866666666667,Some but not all of the symbols are circles.,"[9, 3, 1]",,1,,True,"[2, 6, 5]",2575,1,,"[0, 1]",,Some of the symbols are ticks.,2,0,"[0, 0, 0]","[7, 0, 5]",1
5800,3,Some but not all of the symbols are spades.,"[0, 0, 0]",0,"[1, 0]",undefined,,0,True,exh-subclausal,True,response,13.650866666666667,Some but not all of the symbols are squares.,"[3, 8, 9]",,0,,True,"[7, 1, 2]",1847,0,,"[1, 0]",,Some of the symbols are circles.,2,0,"[0, 0, 0]","[5, 8, 4]",0
,4,,,,,undefined,bot_check,,,,,,10.948266666666667,,,,,1,,,,,"[0, 'Elizabeth']",,Elizabeth,,,,,,
9264,4,8 + 1 = ?,"[4, 0, 0]",0,"[0, 1]",undefined,,1,False,exh-subclausal,True,filler,10.948266666666667,3 + 4 = ?,"[9, 8, 1]",,0,,False,"[4, 8, 5]",3065,1,,"[0, 1]",,Some of the symbols are hearts.,3,1,"[7, 0, 0]","[7, 3, 4]",1
15846,4,Some but not all of the symbols are clubs.,"[0, 0, 0]",0,"[1, 0]",undefined,,0,True,exh-subclausal,True,filler,10.948266666666667,Some but not all of the symbols are spades.,"[1, 8, 3]",,0,,True,"[8, 5, 7]",2703,0,,"[1, 0]",,Some of the symbols are notes.,2,0,"[0, 0, 0]","[3, 0, 7]",1
14471,4,Some but not all of the symbols are circles.,"[0, 0, 0]",0,"[0, 1]",undefined,,1,True,exh-subclausal,True,response,10.948266666666667,Some but not all of the symbols are spades.,"[7, 0, 2]",,0,,True,"[4, 1, 2]",6287,0,,"[1, 0]",,Some of the symbols are hearts.,2,1,"[0, 0, 0]","[3, 7, 9]",1
8144,4,Some of the symbols are squares.,"[0, 0, 0]",0,"[0, 1]",undefined,,1,True,exh-subclausal,True,response,10.948266666666667,Some of the symbols are hearts.,"[5, 6, 7]",,1,,True,"[3, 8, 9]",2391,1,,"[0, 1]",,Some of the symbols are spades.,1,1,"[0, 0, 0]","[4, 6, 1]",1
7552,4,There is a star.,"[0, 0, 0]",2,"[0, 1]",undefined,,1,True,exh-subclausal,True,response,10.948266666666667,There is a star.,"[6, 3, 8]",,1,,True,"[1, 2, 0]",3367,1,,"[0, 1]",,There is a club.,0,1,"[0, 0, 0]","[6, 0, 1]",0
7257,4,There is a club.,"[0, 0, 0]",2,"[1, 0]",undefined,,0,True,exh-subclausal,True,filler,10.948266666666667,There is a square.,"[1, 0, 5]",,0,,True,"[1, 4, 0]",2471,0,,"[1, 0]",,There is a club.,0,0,"[0, 0, 0]","[5, 0, 1]",1
6744,4,There are four squares.,"[0, 0, 0]",1,"[1, 0]",undefined,,0,True,exh-subclausal,True,filler,10.948266666666667,There are four notes.,"[5, 1, 3]",,1,,True,"[3, 0, 2]",2590,1,,"[0, 1]",,There are four spades.,1,0,"[0, 0, 0]","[8, 7, 9]",1
7920,4,Some but not all of the symbols are diamonds.,"[0, 0, 0]",0,"[0, 1]",undefined,,1,True,exh-subclausal,True,filler,10.948266666666667,Some but not all of the symbols are ticks.,"[0, 7, 9]",,1,,True,"[7, 4, 9]",2032,1,,"[0, 1]",,Some of the symbols are circles.,2,1,"[0, 0, 0]","[2, 5, 8]",1
6864,4,There is a spade but nothing else.,"[0, 0, 0]",2,"[1, 0]",undefined,,0,True,exh-subclausal,True,filler,10.948266666666667,There is a note but nothing else.,"[3, 7, 2]",,0,,True,"[6, 9, 8]",1632,0,,"[1, 0]",,There is a star.,2,0,"[0, 0, 0]","[8, 7, 6]",1
5128,4,6 + 1 = ?,"[7, 0, 0]",2,"[0, 1]",undefined,,1,True,exh-subclausal,True,response,10.948266666666667,2 + 1 = ?,"[7, 6, 1]",,0,,True,"[5, 0, 4]",1623,0,,"[1, 0]",,There is a square.,3,1,"[1, 0, 0]","[3, 2, 1]",0
9200,4,There is a club.,"[0, 0, 0]",2,"[1, 0]",undefined,,0,True,exh-subclausal,True,response,10.948266666666667,There is a diamond.,"[1, 0, 3]",,0,,True,"[9, 6, 5]",2022,0,,"[1, 0]",,There is a triangle.,1,0,"[0, 0, 0]","[0, 3, 7]",0
8656,4,There are four but no more than four ticks.,"[0, 0, 0]",1,"[1, 0]",undefined,,0,True,exh-subclausal,True,response,10.948266666666667,There are four but no more than four squares.,"[2, 9, 1]",,0,,True,"[6, 5, 3]",3296,0,,"[1, 0]",,There are four stars.,2,0,"[0, 0, 0]","[5, 7, 8]",1
6928,4,Some of the symbols are notes.,"[0, 0, 0]",0,"[0, 1]",undefined,,1,True,exh-subclausal,True,filler,10.948266666666667,Some of the symbols are stars.,"[8, 6, 2]",,0,,True,"[7, 8, 9]",2088,0,,"[1, 0]",,Some of the symbols are circles.,0,1,"[0, 0, 0]","[6, 3, 8]",1
5751,4,8 + 2 = ?,"[8, 0, 0]",2,"[1, 0]",undefined,,0,False,exh-subclausal,True,response,10.948266666666667,4 + 8 = ?,"[10, 8, 2]",,1,,False,"[1, 3, 0]",2542,0,,"[1, 0]",,There is a club.,3,0,"[6, 0, 0]","[12, 4, 8]",0
7096,4,There are four but no more than four triangles.,"[0, 0, 0]",1,"[1, 0]",undefined,,0,True,exh-subclausal,True,filler,10.948266666666667,There are four but no more than four diamonds.,"[9, 5, 2]",,0,,True,"[8, 0, 6]",2279,0,,"[1, 0]",,There are four notes.,2,0,"[0, 0, 0]","[0, 5, 7]",1
