responseSymbols,slide_type,response,image,Answer.condition,block_rt,pOSymbols,correctPTChoice,primeStrength,goodPTChoice,responseChoice,primeTShuffle,pOwrongAnswer,pTSentence,trial_type,goodPOChoice,pTSymbols,workerid,pOSentence,primeOShuffle,responseSentence,pOChoice,pTChoice,btwncondition,primeType,Answer.time_in_minutes,correctPChoices,audio,slide_number,pTwrongAnswer,response_rt,correctPOChoice
,bot_check,"[0, 'Susan']",Susan,undefined,,,,,,,,,,,,,0,,,,,,,,6.842116666666667,,,1,,,
"[1, 6, 9]",,,,undefined,16588,"[6, 0, 2]",True,0,1,1,"[0, 1]","[0, 0, 0]",There are four circles.,response,0,"[7, 3, 0]",0,There are four stars.,"[1, 0]",There are four clubs.,0,1,exh-subclausal,1,6.842116666666667,True,,,"[0, 0, 0]",1135,True
"[8, 7, 0]",,,,undefined,3849,"[7, 5, 2]",False,3,0,1,"[1, 0]","[8, 0, 0]",2 + 3 = ?,filler,0,"[5, 2, 3]",0,5 + 2 = ?,"[1, 0]",Some of the symbols are notes.,0,1,exh-subclausal,0,6.842116666666667,False,,,"[3, 0, 0]",1732,True
"[7, 9, 5]",,,,undefined,3259,"[0, 7, 4]",True,0,1,1,"[0, 1]","[0, 0, 0]",There are four triangles.,filler,0,"[9, 0, 1]",0,There are four diamonds.,"[1, 0]",There are four circles.,0,1,exh-subclausal,1,6.842116666666667,True,,,"[0, 0, 0]",1098,True
"[1, 5, 8]",,,,undefined,3556,"[7, 9, 4]",True,0,1,1,"[0, 1]","[0, 0, 0]",Some of the symbols are circles.,filler,0,"[7, 8, 9]",0,Some of the symbols are circles.,"[1, 0]",Some of the symbols are clubs.,0,1,exh-subclausal,0,6.842116666666667,True,,,"[0, 0, 0]",1149,True
"[9, 4, 6]",,,,undefined,3413,"[1, 4, 8]",True,1,1,1,"[0, 1]","[0, 0, 0]",There are four ticks.,filler,0,"[2, 8, 4]",0,There are four clubs.,"[1, 0]",There are four triangles.,0,1,exh-subclausal,1,6.842116666666667,True,,,"[0, 0, 0]",960,True
"[1, 9, 5]",,,,undefined,5872,"[4, 6, 9]",True,1,0,1,"[1, 0]","[0, 0, 0]",Some of the symbols are clubs.,filler,1,"[1, 5, 8]",0,Some of the symbols are hearts.,"[0, 1]",Some of the symbols are clubs.,1,0,exh-subclausal,0,6.842116666666667,True,,,"[0, 0, 0]",1150,True
"[9, 1, 6]",,,,undefined,2992,"[6, 4, 2]",True,3,1,0,"[0, 1]","[2, 0, 0]",5 + 5 = ?,response,1,"[10, 5, 5]",0,4 + 2 = ?,"[0, 1]",There is a triangle.,0,1,exh-subclausal,2,6.842116666666667,False,,,"[1, 0, 0]",1082,False
"[9, 8, 7]",,,,undefined,2674,"[7, 1, 6]",True,3,1,1,"[0, 1]","[0, 0, 0]",3 + 9 = ?,filler,0,"[12, 3, 9]",0,1 + 6 = ?,"[1, 0]",Some of the symbols are triangles.,0,1,exh-subclausal,0,6.842116666666667,True,,,"[4, 0, 0]",996,True
"[6, 5, 0]",,,,undefined,2724,"[12, 4, 8]",True,3,1,1,"[0, 1]","[1, 0, 0]",9 + 9 = ?,filler,1,"[18, 9, 9]",0,4 + 8 = ?,"[0, 1]",There is a star.,0,1,exh-subclausal,2,6.842116666666667,False,,,"[9, 0, 0]",1063,False
"[1, 8, 2]",,,,undefined,2873,"[7, 1, 6]",True,0,1,0,"[0, 1]","[0, 0, 0]",There are four triangles.,response,0,"[9, 1, 5]",0,There are four circles.,"[1, 0]",There are four clubs.,0,1,exh-subclausal,1,6.842116666666667,True,,,"[0, 0, 0]",1011,True
"[9, 7, 4]",,,,undefined,3028,"[10, 3, 7]",False,3,1,1,"[0, 1]","[6, 0, 0]",3 + 0 = ?,filler,1,"[3, 3, 0]",0,3 + 7 = ?,"[0, 1]",There are four triangles.,1,0,exh-subclausal,1,6.842116666666667,False,,,"[0, 0, 0]",1319,True
"[9, 8, 2]",,,,undefined,4974,"[1, 4, 3]",True,0,1,1,"[0, 1]","[0, 0, 0]",Some of the symbols are triangles.,response,1,"[9, 3, 8]",0,Some of the symbols are clubs.,"[0, 1]",Some of the symbols are triangles.,1,1,exh-subclausal,0,6.842116666666667,True,,,"[0, 0, 0]",2112,True
"[6, 8, 4]",,,,undefined,3365,"[7, 0, 7]",False,3,1,1,"[0, 1]","[4, 0, 0]",4 + 7 = ?,filler,0,"[11, 4, 7]",0,0 + 7 = ?,"[1, 0]",There is a star.,1,0,exh-subclausal,2,6.842116666666667,False,,,"[0, 0, 0]",1765,False
"[9, 5, 7]",,,,undefined,3285,"[9, 5, 8]",True,0,1,0,"[0, 1]","[0, 0, 0]",There is a tick.,response,0,"[2, 6, 3]",0,There is a triangle.,"[1, 0]",There is a triangle.,0,1,exh-subclausal,2,6.842116666666667,True,,,"[0, 0, 0]",1043,True
"[7, 1, 2]",,,,undefined,2693,"[2, 9, 7]",True,1,0,1,"[1, 0]","[0, 0, 0]",There are four squares.,filler,0,"[5, 2, 6]",0,There are four ticks.,"[1, 0]",There are four circles.,0,0,exh-subclausal,1,6.842116666666667,True,,,"[0, 0, 0]",870,True
"[4, 7, 0]",,,,undefined,2748,"[8, 5, 3]",False,3,0,1,"[1, 0]","[5, 0, 0]",7 + 9 = ?,filler,0,"[16, 7, 9]",0,5 + 3 = ?,"[1, 0]",Some of the symbols are hearts.,0,1,exh-subclausal,0,6.842116666666667,False,,,"[1, 0, 0]",1064,True
"[1, 6, 2]",,,,undefined,2795,"[3, 6, 0]",True,1,1,1,"[0, 1]","[0, 0, 0]",There are four notes.,response,0,"[8, 0, 3]",0,There are four spades.,"[1, 0]",There are four clubs.,0,1,exh-subclausal,1,6.842116666666667,True,,,"[0, 0, 0]",968,True
"[4, 0, 2]",,,,undefined,3256,"[4, 4, 0]",False,3,0,1,"[1, 0]","[8, 0, 0]",4 + 6 = ?,response,1,"[10, 4, 6]",0,4 + 0 = ?,"[0, 1]",Some of the symbols are hearts.,0,1,exh-subclausal,0,6.842116666666667,False,,,"[2, 0, 0]",1438,False
"[3, 9, 5]",,,,undefined,3733,"[1, 6, 9]",True,0,0,1,"[1, 0]","[0, 0, 0]",Some of the symbols are triangles.,response,1,"[9, 8, 5]",0,Some of the symbols are clubs.,"[0, 1]",Some of the symbols are spades.,1,0,exh-subclausal,0,6.842116666666667,True,,,"[0, 0, 0]",1297,True
"[4, 7, 0]",,,,undefined,2706,"[11, 7, 4]",True,3,1,1,"[0, 1]","[0, 0, 0]",9 + 6 = ?,response,0,"[15, 9, 6]",0,7 + 4 = ?,"[1, 0]",There are four hearts.,0,1,exh-subclausal,1,6.842116666666667,True,,,"[5, 0, 0]",1183,True
"[7, 2, 9]",,,,undefined,3400,"[2, 5, 7]",True,1,0,1,"[1, 0]","[0, 0, 0]",Some of the symbols are notes.,response,0,"[8, 3, 7]",0,Some of the symbols are ticks.,"[1, 0]",Some of the symbols are circles.,0,0,exh-subclausal,0,6.842116666666667,True,,,"[0, 0, 0]",883,True
"[3, 4, 7]",,,,undefined,2756,"[15, 6, 9]",True,3,1,0,"[0, 1]","[8, 0, 0]",1 + 9 = ?,response,1,"[10, 1, 9]",0,6 + 9 = ?,"[0, 1]",There is a spade.,0,1,exh-subclausal,2,6.842116666666667,False,,,"[3, 0, 0]",1049,False
"[0, 6, 2]",,,,undefined,4721,"[7, 9, 3]",True,2,1,1,"[0, 1]","[0, 0, 0]",Some but not all of the symbols are squares.,response,0,"[5, 8, 0]",0,Some but not all of the symbols are circles.,"[1, 0]",Some of the symbols are diamonds.,0,1,exh-subclausal,0,6.842116666666667,True,,,"[0, 0, 0]",1387,True
"[6, 3, 2]",,,,undefined,2872,"[13, 9, 4]",True,3,1,1,"[0, 1]","[8, 0, 0]",8 + 4 = ?,response,0,"[12, 8, 4]",0,9 + 4 = ?,"[1, 0]",Some of the symbols are stars.,0,1,exh-subclausal,0,6.842116666666667,True,,,"[1, 0, 0]",1321,True
"[1, 4, 3]",,,,undefined,2882,"[6, 2, 4]",False,3,1,1,"[0, 1]","[3, 0, 0]",2 + 0 = ?,filler,0,"[2, 2, 0]",0,2 + 4 = ?,"[1, 0]",There are four clubs.,1,0,exh-subclausal,1,6.842116666666667,False,,,"[9, 0, 0]",1277,False
"[8, 1, 7]",,,,undefined,4502,"[9, 6, 7]",True,2,0,1,"[1, 0]","[0, 0, 0]",Some but not all of the symbols are diamonds.,response,0,"[0, 7, 9]",0,Some but not all of the symbols are triangles.,"[1, 0]",Some of the symbols are notes.,0,0,exh-subclausal,0,6.842116666666667,True,,,"[0, 0, 0]",1016,True
"[5, 7, 6]",,,,undefined,4598,"[8, 9, 0]",True,2,0,1,"[1, 0]","[0, 0, 0]",There are four but no more than four circles.,response,0,"[7, 4, 2]",0,There are four but no more than four notes.,"[1, 0]",There are four squares.,0,0,exh-subclausal,1,6.842116666666667,True,,,"[0, 0, 0]",1233,True
"[5, 0, 8]",,,,undefined,4223,"[8, 2, 0]",True,2,1,1,"[0, 1]","[0, 0, 0]",There is a heart but nothing else.,response,1,"[4, 1, 8]",0,There is a note but nothing else.,"[0, 1]",There is a square.,1,1,exh-subclausal,2,6.842116666666667,True,,,"[0, 0, 0]",1021,True
"[3, 6, 7]",,,,undefined,5157,"[0, 5, 4]",True,2,0,1,"[1, 0]","[0, 0, 0]",Some but not all of the symbols are clubs.,filler,1,"[1, 2, 6]",0,Some but not all of the symbols are diamonds.,"[0, 1]",Some of the symbols are spades.,1,0,exh-subclausal,0,6.842116666666667,True,,,"[0, 0, 0]",1608,True
"[1, 7, 3]",,,,undefined,3040,"[6, 9, 5]",True,2,1,1,"[0, 1]","[0, 0, 0]",There are four but no more than four clubs.,response,0,"[1, 8, 0]",0,There are four but no more than four stars.,"[1, 0]",There are four clubs.,0,1,exh-subclausal,1,6.842116666666667,True,,,"[0, 0, 0]",1020,True
"[4, 7, 6]",,,,undefined,2442,"[9, 8, 1]",False,3,0,1,"[1, 0]","[10, 0, 0]",7 + 6 = ?,response,1,"[13, 7, 6]",0,8 + 1 = ?,"[0, 1]",There are four hearts.,0,1,exh-subclausal,1,6.842116666666667,False,,,"[9, 0, 0]",974,False
"[7, 8, 5]",,,,undefined,2661,"[4, 4, 0]",True,3,0,1,"[1, 0]","[4, 0, 0]",3 + 5 = ?,filler,0,"[8, 3, 5]",0,4 + 0 = ?,"[1, 0]",Some of the symbols are circles.,0,0,exh-subclausal,0,6.842116666666667,True,,,"[5, 0, 0]",1090,True
"[7, 5, 9]",,,,undefined,3929,"[5, 2, 7]",True,1,0,1,"[1, 0]","[0, 0, 0]",Some of the symbols are triangles.,response,0,"[9, 3, 2]",0,Some of the symbols are squares.,"[1, 0]",Some of the symbols are circles.,0,0,exh-subclausal,0,6.842116666666667,True,,,"[0, 0, 0]",1266,True
"[9, 3, 4]",,,,undefined,4260,"[2, 8, 7]",True,2,1,1,"[0, 1]","[0, 0, 0]",Some but not all of the symbols are triangles.,filler,1,"[9, 1, 2]",0,Some but not all of the symbols are ticks.,"[0, 1]",Some of the symbols are triangles.,1,1,exh-subclausal,0,6.842116666666667,True,,,"[0, 0, 0]",1426,True
"[8, 7, 3]",,,,undefined,3141,"[0, 7, 2]",True,0,0,0,"[1, 0]","[0, 0, 0]",There is a diamond.,response,1,"[0, 7, 8]",0,There is a diamond.,"[0, 1]",There is a note.,1,0,exh-subclausal,2,6.842116666666667,True,,,"[0, 0, 0]",1045,True
"[3, 5, 1]",,,,undefined,3635,"[1, 6, 3]",True,2,0,1,"[1, 0]","[0, 0, 0]",Some but not all of the symbols are clubs.,filler,1,"[1, 6, 0]",0,Some but not all of the symbols are clubs.,"[0, 1]",Some of the symbols are spades.,1,0,exh-subclausal,0,6.842116666666667,True,,,"[0, 0, 0]",1069,True
"[3, 7, 9]",,,,undefined,3945,"[4, 3, 7]",True,2,0,1,"[1, 0]","[0, 0, 0]",There are four but no more than four clubs.,response,1,"[1, 2, 3]",0,There are four but no more than four hearts.,"[0, 1]",There are four spades.,1,0,exh-subclausal,1,6.842116666666667,True,,,"[0, 0, 0]",1015,True
"[3, 2, 4]",,,,undefined,3853,"[1, 4, 9]",True,0,0,1,"[1, 0]","[0, 0, 0]",Some of the symbols are diamonds.,filler,0,"[0, 6, 4]",0,Some of the symbols are clubs.,"[1, 0]",Some of the symbols are spades.,0,0,exh-subclausal,0,6.842116666666667,True,,,"[0, 0, 0]",1119,True
"[3, 2, 9]",,,,undefined,3211,"[8, 9, 7]",True,1,0,0,"[1, 0]","[0, 0, 0]",There is a tick.,response,0,"[2, 7, 6]",0,There is a note.,"[1, 0]",There is a spade.,0,0,exh-subclausal,2,6.842116666666667,True,,,"[0, 0, 0]",1185,True
"[7, 4, 6]",,,,undefined,2938,"[1, 7, 9]",True,2,0,1,"[1, 0]","[0, 0, 0]",There are four but no more than four notes.,response,1,"[8, 2, 1]",0,There are four but no more than four clubs.,"[0, 1]",There are four circles.,1,0,exh-subclausal,1,6.842116666666667,True,,,"[0, 0, 0]",916,True
"[8, 4, 6]",,,,undefined,3895,"[0, 8, 2]",True,1,0,1,"[1, 0]","[0, 0, 0]",Some of the symbols are stars.,response,1,"[6, 9, 4]",0,Some of the symbols are diamonds.,"[0, 1]",Some of the symbols are notes.,1,0,exh-subclausal,0,6.842116666666667,True,,,"[0, 0, 0]",1091,True
"[1, 3, 4]",,,,undefined,2608,"[1, 6, 0]",True,1,0,1,"[1, 0]","[0, 0, 0]",There are four notes.,filler,1,"[8, 3, 1]",0,There are four clubs.,"[0, 1]",There are four clubs.,1,0,exh-subclausal,1,6.842116666666667,True,,,"[0, 0, 0]",869,True
"[8, 1, 6]",,,,undefined,4699,"[8, 1, 5]",True,1,1,1,"[0, 1]","[0, 0, 0]",Some of the symbols are stars.,filler,1,"[6, 2, 0]",0,Some of the symbols are notes.,"[0, 1]",Some of the symbols are notes.,1,1,exh-subclausal,0,6.842116666666667,True,,,"[0, 0, 0]",972,True
"[6, 1, 9]",,,,undefined,3229,"[5, 6, 1]",True,0,1,1,"[0, 1]","[0, 0, 0]",There is a triangle.,filler,1,"[9, 4, 0]",0,There is a square.,"[0, 1]",There is a star.,1,1,exh-subclausal,2,6.842116666666667,True,,,"[0, 0, 0]",1283,True
"[0, 5, 7]",,,,undefined,2741,"[9, 7, 2]",True,3,1,1,"[0, 1]","[1, 0, 0]",5 + 3 = ?,filler,0,"[8, 5, 3]",0,7 + 2 = ?,"[1, 0]",There is a diamond.,0,1,exh-subclausal,2,6.842116666666667,True,,,"[9, 0, 0]",1307,True
"[3, 5, 2]",,,,undefined,3064,"[0, 7, 4]",True,1,1,0,"[0, 1]","[0, 0, 0]",There is a star.,response,1,"[6, 8, 3]",0,There is a diamond.,"[0, 1]",There is a spade.,1,1,exh-subclausal,2,6.842116666666667,True,,,"[0, 0, 0]",1095,True
"[5, 7, 4]",,,,undefined,3189,"[1, 8, 2]",True,0,0,1,"[1, 0]","[0, 0, 0]",There is a spade.,filler,0,"[3, 7, 5]",0,There is a club.,"[1, 0]",There is a square.,0,0,exh-subclausal,2,6.842116666666667,True,,,"[0, 0, 0]",996,True
"[0, 1, 6]",,,,undefined,3606,"[8, 9, 6]",True,0,0,1,"[1, 0]","[0, 0, 0]",There are four notes.,filler,1,"[8, 7, 6]",0,There are four notes.,"[0, 1]",There are four diamonds.,1,0,exh-subclausal,1,6.842116666666667,True,,,"[0, 0, 0]",1279,True
"[7, 4, 2]",,,,undefined,2285,"[10, 5, 5]",False,3,0,0,"[1, 0]","[4, 0, 0]",5 + 5 = ?,response,1,"[10, 5, 5]",0,5 + 5 = ?,"[0, 1]",There is a circle.,0,1,exh-subclausal,2,6.842116666666667,False,,,"[6, 0, 0]",898,False
"[6, 5, 0]",,,,undefined,3328,"[0, 3, 2]",True,2,1,1,"[0, 1]","[0, 0, 0]",There is a spade but nothing else.,filler,1,"[3, 1, 7]",0,There is a diamond but nothing else.,"[0, 1]",There is a star.,1,1,exh-subclausal,2,6.842116666666667,True,,,"[0, 0, 0]",973,True
"[8, 0, 5]",,,,undefined,2783,"[13, 6, 7]",True,3,0,1,"[1, 0]","[6, 0, 0]",4 + 9 = ?,filler,0,"[13, 4, 9]",0,6 + 7 = ?,"[1, 0]",There is a note.,1,0,exh-subclausal,2,6.842116666666667,False,,,"[3, 0, 0]",1246,False
"[3, 5, 7]",,,,undefined,3047,"[0, 4, 8]",True,0,0,0,"[1, 0]","[0, 0, 0]",There is a tick.,response,0,"[2, 0, 6]",0,There is a diamond.,"[1, 0]",There is a spade.,0,0,exh-subclausal,2,6.842116666666667,True,,,"[0, 0, 0]",1140,True
"[9, 3, 8]",,,,undefined,3314,"[3, 8, 7]",True,0,1,1,"[0, 1]","[0, 0, 0]",There are four ticks.,response,1,"[2, 3, 7]",0,There are four spades.,"[0, 1]",There are four triangles.,1,1,exh-subclausal,1,6.842116666666667,True,,,"[0, 0, 0]",1447,True
"[0, 1, 6]",,,,undefined,3031,"[7, 4, 2]",True,0,0,1,"[1, 0]","[0, 0, 0]",There is a note.,filler,0,"[8, 9, 6]",0,There is a circle.,"[1, 0]",There is a diamond.,0,0,exh-subclausal,2,6.842116666666667,True,,,"[0, 0, 0]",1082,True
"[1, 8, 2]",,,,undefined,4813,"[9, 6, 1]",True,1,0,1,"[1, 0]","[0, 0, 0]",Some of the symbols are stars.,filler,0,"[6, 9, 2]",0,Some of the symbols are triangles.,"[1, 0]",Some of the symbols are clubs.,0,0,exh-subclausal,0,6.842116666666667,True,,,"[0, 0, 0]",1180,True
"[1, 2, 7]",,,,undefined,2722,"[4, 1, 8]",True,2,0,0,"[1, 0]","[0, 0, 0]",There is a triangle but nothing else.,response,0,"[9, 7, 4]",0,There is a heart but nothing else.,"[1, 0]",There is a club.,0,0,exh-subclausal,2,6.842116666666667,True,,,"[0, 0, 0]",1057,True
"[8, 1, 2]",,,,undefined,4973,"[2, 6, 1]",True,0,0,1,"[1, 0]","[0, 0, 0]",Some of the symbols are stars.,response,0,"[6, 3, 4]",0,Some of the symbols are ticks.,"[1, 0]",Some of the symbols are notes.,0,0,exh-subclausal,0,6.842116666666667,True,,,"[0, 0, 0]",1325,True
"[1, 3, 5]",,,,undefined,3569,"[3, 1, 2]",True,1,0,1,"[1, 0]","[0, 0, 0]",Some of the symbols are triangles.,filler,0,"[9, 7, 3]",0,Some of the symbols are spades.,"[1, 0]",Some of the symbols are clubs.,0,0,exh-subclausal,0,6.842116666666667,True,,,"[0, 0, 0]",1008,True
"[2, 5, 7]",,,,undefined,2740,"[4, 8, 1]",True,1,0,1,"[1, 0]","[0, 0, 0]",There are four spades.,response,0,"[3, 8, 6]",0,There are four hearts.,"[1, 0]",There are four ticks.,0,0,exh-subclausal,1,6.842116666666667,True,,,"[0, 0, 0]",931,True
"[2, 9, 6]",,,,undefined,3104,"[0, 5, 8]",True,2,0,0,"[1, 0]","[0, 0, 0]",There is a triangle but nothing else.,response,1,"[9, 4, 5]",0,There is a diamond but nothing else.,"[0, 1]",There is a tick.,1,0,exh-subclausal,2,6.842116666666667,True,,,"[0, 0, 0]",974,True
"[9, 0, 4]",,,,undefined,3037,"[7, 6, 0]",True,2,0,1,"[1, 0]","[0, 0, 0]",There are four but no more than four clubs.,filler,1,"[1, 0, 2]",0,There are four but no more than four circles.,"[0, 1]",There are four triangles.,1,0,exh-subclausal,1,6.842116666666667,True,,,"[0, 0, 0]",867,True
"[8, 4, 0]",,,,undefined,2780,"[8, 4, 7]",True,1,1,0,"[0, 1]","[0, 0, 0]",There is a triangle.,response,1,"[9, 0, 2]",0,There is a note.,"[0, 1]",There is a note.,1,1,exh-subclausal,2,6.842116666666667,True,,,"[0, 0, 0]",1006,True
"[3, 1, 5]",,,,undefined,3442,"[9, 4, 2]",True,0,0,0,"[1, 0]","[0, 0, 0]",There is a triangle.,response,1,"[9, 8, 5]",0,There is a triangle.,"[0, 1]",There is a spade.,1,0,exh-subclausal,2,6.842116666666667,True,,,"[0, 0, 0]",1028,True
"[3, 7, 4]",,,,undefined,2383,"[10, 7, 3]",True,3,0,0,"[1, 0]","[5, 0, 0]",0 + 5 = ?,response,0,"[5, 0, 5]",0,7 + 3 = ?,"[1, 0]",There is a spade.,1,0,exh-subclausal,2,6.842116666666667,False,,,"[9, 0, 0]",1004,False
"[8, 3, 7]",,,,undefined,2699,"[0, 7, 3]",True,1,1,1,"[0, 1]","[0, 0, 0]",There is a square.,filler,0,"[5, 4, 3]",0,There is a diamond.,"[1, 0]",There is a note.,0,1,exh-subclausal,2,6.842116666666667,True,,,"[0, 0, 0]",936,True
"[8, 6, 7]",,,,undefined,3006,"[7, 4, 8]",True,2,0,1,"[1, 0]","[0, 0, 0]",There is a star but nothing else.,filler,1,"[6, 4, 2]",0,There is a circle but nothing else.,"[0, 1]",There is a note.,1,0,exh-subclausal,2,6.842116666666667,True,,,"[0, 0, 0]",1264,True
"[8, 0, 7]",,,,undefined,2728,"[1, 7, 6]",True,1,1,1,"[0, 1]","[0, 0, 0]",There are four clubs.,filler,1,"[1, 7, 3]",0,There are four clubs.,"[0, 1]",There are four notes.,1,1,exh-subclausal,1,6.842116666666667,True,,,"[0, 0, 0]",1159,True
"[2, 9, 0]",,,,undefined,2807,"[5, 3, 9]",True,0,0,1,"[1, 0]","[0, 0, 0]",There is a heart.,filler,0,"[4, 8, 5]",0,There is a square.,"[1, 0]",There is a tick.,0,0,exh-subclausal,2,6.842116666666667,True,,,"[0, 0, 0]",841,True
"[5, 2, 3]",,,,undefined,3534,"[8, 3, 9]",True,0,1,1,"[0, 1]","[0, 0, 0]",Some of the symbols are squares.,response,0,"[5, 4, 3]",0,Some of the symbols are notes.,"[1, 0]",Some of the symbols are squares.,0,1,exh-subclausal,0,6.842116666666667,True,,,"[0, 0, 0]",1100,True
"[5, 0, 8]",,,,undefined,2963,"[2, 7, 8]",True,1,1,1,"[0, 1]","[0, 0, 0]",There is a triangle.,filler,0,"[9, 4, 6]",0,There is a tick.,"[1, 0]",There is a square.,0,1,exh-subclausal,2,6.842116666666667,True,,,"[0, 0, 0]",1061,True
"[8, 6, 1]",,,,undefined,2382,"[8, 2, 6]",True,3,1,1,"[0, 1]","[6, 0, 0]",5 + 4 = ?,filler,0,"[9, 5, 4]",0,2 + 6 = ?,"[1, 0]",There are four notes.,0,1,exh-subclausal,1,6.842116666666667,True,,,"[2, 0, 0]",830,True
"[6, 1, 5]",,,,undefined,2414,"[4, 1, 3]",False,3,1,1,"[0, 1]","[0, 0, 0]",6 + 7 = ?,response,1,"[13, 6, 7]",0,1 + 3 = ?,"[0, 1]",Some of the symbols are stars.,1,0,exh-subclausal,0,6.842116666666667,False,,,"[4, 0, 0]",967,True
"[3, 1, 4]",,,,undefined,2865,"[4, 8, 9]",True,2,1,1,"[0, 1]","[0, 0, 0]",Some but not all of the symbols are ticks.,filler,0,"[2, 3, 0]",0,Some but not all of the symbols are hearts.,"[1, 0]",Some of the symbols are spades.,0,1,exh-subclausal,0,6.842116666666667,True,,,"[0, 0, 0]",939,True
"[2, 9, 0]",,,,undefined,2709,"[0, 2, 8]",True,0,0,1,"[1, 0]","[0, 0, 0]",There are four clubs.,response,1,"[1, 6, 7]",0,There are four diamonds.,"[0, 1]",There are four ticks.,1,0,exh-subclausal,1,6.842116666666667,True,,,"[0, 0, 0]",795,True
"[1, 7, 6]",,,,undefined,2925,"[7, 4, 8]",True,0,1,1,"[0, 1]","[0, 0, 0]",Some of the symbols are triangles.,filler,0,"[9, 1, 4]",0,Some of the symbols are circles.,"[1, 0]",Some of the symbols are clubs.,0,1,exh-subclausal,0,6.842116666666667,True,,,"[0, 0, 0]",993,True
"[2, 8, 7]",,,,undefined,3244,"[6, 9, 0]",True,1,0,1,"[1, 0]","[0, 0, 0]",There is a circle.,filler,1,"[7, 9, 8]",0,There is a star.,"[0, 1]",There is a tick.,1,0,exh-subclausal,2,6.842116666666667,True,,,"[0, 0, 0]",966,True
"[8, 0, 4]",,,,undefined,2777,"[0, 6, 9]",True,0,0,1,"[1, 0]","[0, 0, 0]",There are four diamonds.,filler,1,"[0, 8, 7]",0,There are four diamonds.,"[0, 1]",There are four notes.,1,0,exh-subclausal,1,6.842116666666667,True,,,"[0, 0, 0]",676,True
"[9, 2, 4]",,,,undefined,3339,"[0, 6, 2]",True,1,0,1,"[1, 0]","[0, 0, 0]",Some of the symbols are stars.,response,0,"[6, 0, 8]",0,Some of the symbols are diamonds.,"[1, 0]",Some of the symbols are triangles.,0,0,exh-subclausal,0,6.842116666666667,True,,,"[0, 0, 0]",876,True
"[8, 6, 4]",,,,undefined,2615,"[2, 5, 6]",True,1,1,1,"[0, 1]","[0, 0, 0]",There is a spade.,filler,1,"[3, 1, 5]",0,There is a tick.,"[0, 1]",There is a note.,1,1,exh-subclausal,2,6.842116666666667,True,,,"[0, 0, 0]",865,True
"[4, 1, 7]",,,,undefined,2390,"[6, 1, 5]",True,3,0,1,"[1, 0]","[2, 0, 0]",3 + 2 = ?,response,0,"[5, 3, 2]",0,1 + 5 = ?,"[1, 0]",There are four hearts.,1,0,exh-subclausal,1,6.842116666666667,False,,,"[1, 0, 0]",840,False
"[9, 6, 4]",,,,undefined,2564,"[1, 7, 4]",True,2,0,1,"[1, 0]","[0, 0, 0]",There are four but no more than four clubs.,filler,1,"[1, 8, 9]",0,There are four but no more than four clubs.,"[0, 1]",There are four triangles.,1,0,exh-subclausal,1,6.842116666666667,True,,,"[0, 0, 0]",787,True
"[5, 3, 2]",,,,undefined,2929,"[9, 3, 8]",True,1,1,0,"[0, 1]","[0, 0, 0]",There is a star.,response,0,"[6, 8, 7]",0,There is a triangle.,"[1, 0]",There is a square.,0,1,exh-subclausal,2,6.842116666666667,True,,,"[0, 0, 0]",1355,True
"[7, 3, 0]",,,,undefined,2533,"[8, 9, 1]",True,2,1,1,"[0, 1]","[0, 0, 0]",There are four but no more than four triangles.,filler,1,"[9, 1, 0]",0,There are four but no more than four notes.,"[0, 1]",There are four circles.,1,1,exh-subclausal,1,6.842116666666667,True,,,"[0, 0, 0]",795,True
"[6, 4, 7]",,,,undefined,4207,"[0, 5, 2]",False,0,1,1,"[0, 1]","[0, 0, 0]",Some of the symbols are notes.,filler,1,"[8, 2, 5]",0,Some of the symbols are diamonds.,"[0, 1]",Some of the symbols are stars.,1,0,exh-subclausal,0,6.842116666666667,False,,,"[0, 0, 0]",1990,True
"[8, 1, 4]",,,,undefined,3073,"[5, 7, 3]",True,0,1,1,"[0, 1]","[0, 0, 0]",There are four spades.,filler,1,"[3, 1, 0]",0,There are four squares.,"[0, 1]",There are four notes.,1,1,exh-subclausal,1,6.842116666666667,True,,,"[0, 0, 0]",841,True
"[7, 3, 0]",,,,undefined,2479,"[0, 1, 8]",True,2,0,1,"[1, 0]","[0, 0, 0]",There is a square but nothing else.,filler,1,"[5, 3, 4]",0,There is a diamond but nothing else.,"[0, 1]",There is a circle.,1,0,exh-subclausal,2,6.842116666666667,True,,,"[0, 0, 0]",790,True
"[6, 9, 0]",,,,undefined,2829,"[5, 0, 5]",True,3,0,1,"[1, 0]","[4, 0, 0]",0 + 1 = ?,filler,1,"[1, 0, 1]",0,0 + 5 = ?,"[0, 1]",There are four stars.,1,0,exh-subclausal,1,6.842116666666667,True,,,"[0, 0, 0]",831,True
"[6, 7, 5]",,,,undefined,2486,"[9, 3, 6]",False,3,1,1,"[0, 1]","[6, 0, 0]",8 + 5 = ?,response,1,"[13, 8, 5]",0,3 + 6 = ?,"[0, 1]",Some of the symbols are stars.,1,0,exh-subclausal,0,6.842116666666667,False,,,"[7, 0, 0]",1031,True
"[2, 3, 8]",,,,undefined,2801,"[9, 4, 7]",True,2,1,1,"[0, 1]","[0, 0, 0]",Some but not all of the symbols are squares.,response,0,"[5, 0, 3]",0,Some but not all of the symbols are triangles.,"[1, 0]",Some of the symbols are ticks.,0,1,exh-subclausal,0,6.842116666666667,True,,,"[0, 0, 0]",904,True
"[9, 1, 4]",,,,undefined,2735,"[6, 5, 7]",True,2,1,1,"[0, 1]","[0, 0, 0]",Some but not all of the symbols are triangles.,response,1,"[9, 7, 6]",0,Some but not all of the symbols are stars.,"[0, 1]",Some of the symbols are triangles.,1,1,exh-subclausal,0,6.842116666666667,True,,,"[0, 0, 0]",902,True
"[2, 7, 9]",,,,undefined,2363,"[9, 1, 8]",True,3,1,0,"[0, 1]","[4, 0, 0]",4 + 2 = ?,response,1,"[6, 4, 2]",0,1 + 8 = ?,"[0, 1]",There are four ticks.,0,1,exh-subclausal,1,6.842116666666667,False,,,"[0, 0, 0]",900,False
"[4, 6, 2]",,,,undefined,3036,"[5, 3, 4]",True,1,0,1,"[1, 0]","[0, 0, 0]",There are four ticks.,response,1,"[2, 1, 3]",0,There are four squares.,"[0, 1]",There are four hearts.,1,0,exh-subclausal,1,6.842116666666667,True,,,"[0, 0, 0]",873,True
"[4, 3, 9]",,,,undefined,2560,"[3, 9, 0]",True,2,1,1,"[0, 1]","[0, 0, 0]",There is a heart but nothing else.,filler,1,"[4, 5, 7]",0,There is a spade but nothing else.,"[0, 1]",There is a heart.,1,1,exh-subclausal,2,6.842116666666667,True,,,"[0, 0, 0]",859,True
"[4, 6, 8]",,,,undefined,2660,"[9, 0, 8]",True,2,0,1,"[1, 0]","[0, 0, 0]",There are four but no more than four diamonds.,filler,0,"[0, 2, 5]",0,There are four but no more than four triangles.,"[1, 0]",There are four hearts.,0,0,exh-subclausal,1,6.842116666666667,True,,,"[0, 0, 0]",790,True
"[3, 6, 8]",,,,undefined,2579,"[1, 6, 0]",True,2,1,0,"[0, 1]","[0, 0, 0]",There is a heart but nothing else.,response,0,"[4, 2, 5]",0,There is a club but nothing else.,"[1, 0]",There is a spade.,0,1,exh-subclausal,2,6.842116666666667,True,,,"[0, 0, 0]",971,True
"[4, 6, 3]",,,,undefined,2462,"[6, 8, 1]",True,1,1,1,"[0, 1]","[0, 0, 0]",There are four hearts.,response,1,"[4, 5, 7]",0,There are four stars.,"[0, 1]",There are four hearts.,1,1,exh-subclausal,1,6.842116666666667,True,,,"[0, 0, 0]",1077,True
,bot_check,"[0, 'Mary']",Mary,undefined,,,,,,,,,,,,,1,,,,,,,,10.766983333333334,,,1,,,
"[5, 9, 7]",,,,undefined,10071,"[8, 7, 6]",True,2,1,1,"[0, 1]","[0, 0, 0]",Some but not all of the symbols are triangles.,filler,0,"[9, 1, 4]",1,Some but not all of the symbols are notes.,"[1, 0]",Some of the symbols are squares.,0,1,exh-subclausal,0,10.766983333333334,True,,,"[0, 0, 0]",2048,True
"[2, 8, 9]",,,,undefined,7256,"[2, 5, 7]",True,2,0,0,"[1, 0]","[0, 0, 0]",There is a tick but nothing else.,response,1,"[2, 4, 5]",1,There is a tick but nothing else.,"[0, 1]",There is a tick.,1,0,exh-subclausal,2,10.766983333333334,True,,,"[0, 0, 0]",2320,True
"[6, 5, 7]",,,,undefined,5951,"[11, 3, 8]",False,3,0,1,"[1, 0]","[4, 0, 0]",1 + 4 = ?,response,0,"[5, 1, 4]",1,3 + 8 = ?,"[1, 0]",There are four stars.,0,1,exh-subclausal,1,10.766983333333334,False,,,"[8, 0, 0]",1911,True
"[6, 2, 9]",,,,undefined,6976,"[0, 5, 7]",True,0,0,1,"[1, 0]","[0, 0, 0]",Some of the symbols are ticks.,response,1,"[2, 3, 4]",1,Some of the symbols are diamonds.,"[0, 1]",Some of the symbols are stars.,1,0,exh-subclausal,0,10.766983333333334,True,,,"[0, 0, 0]",2440,True
"[8, 3, 2]",,,,undefined,6111,"[7, 3, 5]",True,2,0,1,"[1, 0]","[0, 0, 0]",There is a circle but nothing else.,filler,0,"[7, 6, 4]",1,There is a circle but nothing else.,"[1, 0]",There is a note.,0,0,exh-subclausal,2,10.766983333333334,True,,,"[0, 0, 0]",2726,True
"[0, 4, 7]",,,,undefined,7297,"[9, 5, 3]",True,2,1,1,"[0, 1]","[0, 0, 0]",There are four but no more than four hearts.,response,0,"[4, 6, 9]",1,There are four but no more than four triangles.,"[1, 0]",There are four diamonds.,0,1,exh-subclausal,1,10.766983333333334,True,,,"[0, 0, 0]",1984,True
"[9, 2, 7]",,,,undefined,9343,"[8, 2, 7]",True,2,1,1,"[0, 1]","[0, 0, 0]",Some but not all of the symbols are hearts.,response,0,"[4, 9, 0]",1,Some but not all of the symbols are notes.,"[1, 0]",Some of the symbols are triangles.,0,1,exh-subclausal,0,10.766983333333334,True,,,"[0, 0, 0]",2007,True
"[8, 6, 0]",,,,undefined,6296,"[2, 6, 3]",True,2,0,1,"[1, 0]","[0, 0, 0]",There is a star but nothing else.,filler,0,"[6, 2, 8]",1,There is a tick but nothing else.,"[1, 0]",There is a note.,0,0,exh-subclausal,2,10.766983333333334,True,,,"[0, 0, 0]",1679,True
"[5, 1, 0]",,,,undefined,5200,"[1, 5, 4]",True,1,0,1,"[1, 0]","[0, 0, 0]",There is a club.,filler,0,"[1, 4, 6]",1,There is a club.,"[1, 0]",There is a square.,0,0,exh-subclausal,2,10.766983333333334,True,,,"[0, 0, 0]",1655,True
"[8, 6, 7]",,,,undefined,10320,"[0, 6, 2]",True,1,0,1,"[1, 0]","[0, 0, 0]",Some of the symbols are diamonds.,filler,0,"[0, 3, 2]",1,Some of the symbols are diamonds.,"[1, 0]",Some of the symbols are notes.,0,0,exh-subclausal,0,10.766983333333334,True,,,"[0, 0, 0]",1647,True
"[9, 6, 4]",,,,undefined,5952,"[7, 5, 2]",False,3,0,1,"[1, 0]","[8, 0, 0]",8 + 9 = ?,response,1,"[17, 8, 9]",1,5 + 2 = ?,"[0, 1]",There is a triangle.,0,1,exh-subclausal,2,10.766983333333334,False,,,"[1, 0, 0]",2799,False
"[1, 5, 8]",,,,undefined,5184,"[9, 2, 7]",False,3,1,1,"[0, 1]","[10, 0, 0]",7 + 1 = ?,response,0,"[8, 7, 1]",1,2 + 7 = ?,"[1, 0]",There is a club.,1,0,exh-subclausal,2,10.766983333333334,False,,,"[9, 0, 0]",2486,False
"[3, 2, 9]",,,,undefined,6520,"[9, 4, 3]",True,0,1,1,"[0, 1]","[0, 0, 0]",There is a star.,response,1,"[6, 8, 7]",1,There is a triangle.,"[0, 1]",There is a spade.,1,1,exh-subclausal,2,10.766983333333334,True,,,"[0, 0, 0]",2359,True
"[8, 4, 6]",,,,undefined,22209,"[0, 8, 6]",True,2,1,1,"[0, 1]","[0, 0, 0]",Some but not all of the symbols are notes.,filler,0,"[8, 1, 4]",1,Some but not all of the symbols are diamonds.,"[1, 0]",Some of the symbols are notes.,0,1,exh-subclausal,0,10.766983333333334,True,,,"[0, 0, 0]",1879,True
"[0, 5, 8]",,,,undefined,5280,"[8, 3, 0]",True,2,1,1,"[0, 1]","[0, 0, 0]",There is a heart but nothing else.,response,1,"[4, 1, 8]",1,There is a note but nothing else.,"[0, 1]",There is a diamond.,1,1,exh-subclausal,2,10.766983333333334,True,,,"[0, 0, 0]",1639,True
"[6, 7, 0]",,,,undefined,4328,"[4, 3, 1]",False,3,0,1,"[1, 0]","[3, 0, 0]",0 + 1 = ?,filler,0,"[1, 0, 1]",1,3 + 1 = ?,"[1, 0]",There is a star.,0,1,exh-subclausal,2,10.766983333333334,False,,,"[9, 0, 0]",1768,True
"[8, 3, 1]",,,,undefined,4304,"[11, 4, 7]",False,3,1,1,"[0, 1]","[1, 0, 0]",4 + 6 = ?,response,1,"[10, 4, 6]",1,4 + 7 = ?,"[0, 1]",There is a note.,1,0,exh-subclausal,2,10.766983333333334,False,,,"[4, 0, 0]",1568,True
"[4, 7, 3]",,,,undefined,5528,"[2, 3, 9]",True,0,0,1,"[1, 0]","[0, 0, 0]",There are four squares.,filler,0,"[5, 9, 7]",1,There are four ticks.,"[1, 0]",There are four hearts.,0,0,exh-subclausal,1,10.766983333333334,True,,,"[0, 0, 0]",1583,True
"[2, 6, 8]",,,,undefined,6904,"[1, 4, 0]",True,0,1,1,"[0, 1]","[0, 0, 0]",There is a tick.,response,1,"[2, 6, 3]",1,There is a club.,"[0, 1]",There is a tick.,1,1,exh-subclausal,2,10.766983333333334,True,,,"[0, 0, 0]",2871,True
"[8, 6, 9]",,,,undefined,4920,"[2, 1, 5]",True,1,0,1,"[1, 0]","[0, 0, 0]",There is a diamond.,response,0,"[0, 9, 5]",1,There is a tick.,"[1, 0]",There is a note.,0,0,exh-subclausal,2,10.766983333333334,True,,,"[0, 0, 0]",1800,True
"[4, 3, 7]",,,,undefined,3936,"[6, 4, 2]",True,3,1,1,"[0, 1]","[2, 0, 0]",8 + 4 = ?,response,1,"[12, 8, 4]",1,4 + 2 = ?,"[0, 1]",There are four hearts.,0,1,exh-subclausal,1,10.766983333333334,False,,,"[9, 0, 0]",1376,False
"[6, 7, 0]",,,,undefined,6256,"[2, 4, 0]",True,2,1,1,"[0, 1]","[0, 0, 0]",There are four but no more than four spades.,response,0,"[3, 8, 7]",1,There are four but no more than four ticks.,"[1, 0]",There are four stars.,0,1,exh-subclausal,1,10.766983333333334,True,,,"[0, 0, 0]",1912,True
"[8, 6, 7]",,,,undefined,4528,"[3, 1, 9]",True,1,1,1,"[0, 1]","[0, 0, 0]",There are four stars.,filler,1,"[6, 7, 1]",1,There are four spades.,"[0, 1]",There are four notes.,1,1,exh-subclausal,1,10.766983333333334,True,,,"[0, 0, 0]",1424,True
"[4, 3, 5]",,,,undefined,4728,"[13, 4, 9]",True,3,0,1,"[1, 0]","[6, 0, 0]",5 + 0 = ?,response,1,"[5, 5, 0]",1,4 + 9 = ?,"[0, 1]",Some of the symbols are hearts.,1,0,exh-subclausal,0,10.766983333333334,True,,,"[9, 0, 0]",1784,True
"[1, 3, 4]",,,,undefined,4328,"[7, 5, 8]",True,1,0,1,"[1, 0]","[0, 0, 0]",There are four squares.,response,1,"[5, 7, 1]",1,There are four circles.,"[0, 1]",There are four clubs.,1,0,exh-subclausal,1,10.766983333333334,True,,,"[0, 0, 0]",1544,True
"[1, 9, 3]",,,,undefined,4272,"[3, 1, 2]",False,3,1,1,"[0, 1]","[0, 0, 0]",4 + 9 = ?,response,0,"[13, 4, 9]",1,1 + 2 = ?,"[1, 0]",Some of the symbols are clubs.,1,0,exh-subclausal,0,10.766983333333334,False,,,"[5, 0, 0]",1800,False
"[3, 7, 2]",,,,undefined,6167,"[8, 1, 4]",True,0,1,1,"[0, 1]","[0, 0, 0]",Some of the symbols are notes.,response,0,"[8, 5, 9]",1,Some of the symbols are notes.,"[1, 0]",Some of the symbols are spades.,0,1,exh-subclausal,0,10.766983333333334,True,,,"[0, 0, 0]",1511,True
"[7, 0, 4]",,,,undefined,4160,"[9, 7, 2]",False,3,0,1,"[1, 0]","[8, 0, 0]",2 + 2 = ?,filler,1,"[4, 2, 2]",1,7 + 2 = ?,"[0, 1]",Some of the symbols are circles.,0,1,exh-subclausal,0,10.766983333333334,False,,,"[6, 0, 0]",1456,False
"[8, 3, 4]",,,,undefined,4447,"[5, 3, 4]",True,0,0,1,"[1, 0]","[0, 0, 0]",Some of the symbols are circles.,response,0,"[7, 0, 3]",1,Some of the symbols are squares.,"[1, 0]",Some of the symbols are notes.,0,0,exh-subclausal,0,10.766983333333334,True,,,"[0, 0, 0]",1472,True
"[4, 1, 0]",,,,undefined,4911,"[2, 5, 6]",True,1,0,1,"[1, 0]","[0, 0, 0]",Some of the symbols are circles.,filler,1,"[7, 5, 0]",1,Some of the symbols are ticks.,"[0, 1]",Some of the symbols are hearts.,1,0,exh-subclausal,0,10.766983333333334,True,,,"[0, 0, 0]",1567,True
"[3, 7, 0]",,,,undefined,4391,"[2, 4, 1]",True,1,0,1,"[1, 0]","[0, 0, 0]",There are four stars.,filler,0,"[6, 0, 5]",1,There are four ticks.,"[1, 0]",There are four spades.,0,0,exh-subclausal,1,10.766983333333334,True,,,"[0, 0, 0]",1407,True
"[8, 1, 3]",,,,undefined,4320,"[8, 1, 2]",True,0,1,1,"[0, 1]","[0, 0, 0]",Some of the symbols are squares.,filler,0,"[5, 3, 8]",1,Some of the symbols are notes.,"[1, 0]",Some of the symbols are notes.,0,1,exh-subclausal,0,10.766983333333334,True,,,"[0, 0, 0]",1448,True
"[2, 4, 9]",,,,undefined,8575,"[3, 7, 0]",True,1,0,1,"[1, 0]","[0, 0, 0]",Some of the symbols are spades.,response,1,"[3, 1, 5]",1,Some of the symbols are spades.,"[0, 1]",Some of the symbols are ticks.,1,0,exh-subclausal,0,10.766983333333334,True,,,"[0, 0, 0]",1511,True
"[6, 2, 7]",,,,undefined,5632,"[2, 0, 5]",True,0,0,1,"[1, 0]","[0, 0, 0]",There are four ticks.,filler,1,"[2, 9, 5]",1,There are four ticks.,"[0, 1]",There are four stars.,1,0,exh-subclausal,1,10.766983333333334,True,,,"[0, 0, 0]",1351,True
"[4, 5, 1]",,,,undefined,5705,"[9, 7, 1]",True,0,1,1,"[0, 1]","[0, 0, 0]",There is a heart.,filler,0,"[4, 2, 5]",1,There is a triangle.,"[1, 0]",There is a heart.,0,1,exh-subclausal,2,10.766983333333334,True,,,"[0, 0, 0]",1599,True
"[1, 6, 5]",,,,undefined,5383,"[9, 5, 8]",True,0,1,1,"[0, 1]","[0, 0, 0]",There are four diamonds.,response,0,"[0, 3, 7]",1,There are four triangles.,"[1, 0]",There are four clubs.,0,1,exh-subclausal,1,10.766983333333334,True,,,"[0, 0, 0]",1391,True
"[3, 1, 4]",,,,undefined,4703,"[12, 6, 6]",False,3,1,1,"[0, 1]","[1, 0, 0]",1 + 7 = ?,filler,0,"[8, 1, 7]",1,6 + 6 = ?,"[1, 0]",There are four spades.,1,0,exh-subclausal,1,10.766983333333334,False,,,"[7, 0, 0]",1215,False
"[7, 4, 8]",,,,undefined,3656,"[16, 8, 8]",False,3,0,1,"[1, 0]","[9, 0, 0]",0 + 8 = ?,filler,0,"[8, 0, 8]",1,8 + 8 = ?,"[1, 0]",There is a circle.,0,1,exh-subclausal,2,10.766983333333334,False,,,"[4, 0, 0]",1239,True
"[2, 0, 5]",,,,undefined,4520,"[0, 1, 7]",True,0,0,1,"[1, 0]","[0, 0, 0]",There is a tick.,response,1,"[2, 1, 8]",1,There is a diamond.,"[0, 1]",There is a tick.,1,0,exh-subclausal,2,10.766983333333334,True,,,"[0, 0, 0]",1463,True
"[0, 8, 3]",,,,undefined,14224,"[3, 5, 0]",True,1,1,1,"[0, 1]","[0, 0, 0]",Some of the symbols are ticks.,filler,0,"[2, 1, 3]",1,Some of the symbols are spades.,"[1, 0]",Some of the symbols are diamonds.,1,1,exh-subclausal,0,10.766983333333334,False,,,"[0, 0, 0]",10207,False
"[3, 2, 5]",,,,undefined,4320,"[9, 8, 7]",True,1,0,1,"[1, 0]","[0, 0, 0]",There are four clubs.,response,0,"[1, 9, 0]",1,There are four triangles.,"[1, 0]",There are four spades.,0,0,exh-subclausal,1,10.766983333333334,True,,,"[0, 0, 0]",1127,True
"[4, 7, 3]",,,,undefined,6744,"[0, 1, 5]",True,2,0,1,"[1, 0]","[0, 0, 0]",Some but not all of the symbols are clubs.,response,1,"[1, 4, 9]",1,Some but not all of the symbols are diamonds.,"[0, 1]",Some of the symbols are hearts.,1,0,exh-subclausal,0,10.766983333333334,True,,,"[0, 0, 0]",1479,True
"[5, 6, 1]",,,,undefined,4840,"[0, 7, 8]",True,1,1,1,"[0, 1]","[0, 0, 0]",There is a star.,response,1,"[6, 0, 2]",1,There is a diamond.,"[0, 1]",There is a square.,1,1,exh-subclausal,2,10.766983333333334,True,,,"[0, 0, 0]",1431,True
"[5, 0, 4]",,,,undefined,6080,"[7, 5, 6]",True,2,0,1,"[1, 0]","[0, 0, 0]",There are four but no more than four stars.,filler,1,"[6, 5, 4]",1,There are four but no more than four circles.,"[0, 1]",There are four squares.,1,0,exh-subclausal,1,10.766983333333334,True,,,"[0, 0, 0]",1359,True
"[0, 5, 8]",,,,undefined,3936,"[0, 9, 2]",True,1,0,1,"[1, 0]","[0, 0, 0]",There are four triangles.,response,0,"[9, 7, 4]",1,There are four diamonds.,"[1, 0]",There are four diamonds.,0,0,exh-subclausal,1,10.766983333333334,True,,,"[0, 0, 0]",1255,True
"[0, 3, 9]",,,,undefined,5007,"[6, 8, 5]",True,1,1,1,"[0, 1]","[0, 0, 0]",Some of the symbols are spades.,response,1,"[3, 2, 0]",1,Some of the symbols are stars.,"[0, 1]",Some of the symbols are diamonds.,1,1,exh-subclausal,0,10.766983333333334,True,,,"[0, 0, 0]",2031,True
"[2, 6, 5]",,,,undefined,4328,"[7, 4, 8]",True,0,0,1,"[1, 0]","[0, 0, 0]",Some of the symbols are notes.,filler,1,"[8, 1, 2]",1,Some of the symbols are circles.,"[0, 1]",Some of the symbols are ticks.,1,0,exh-subclausal,0,10.766983333333334,True,,,"[0, 0, 0]",1367,True
"[8, 2, 6]",,,,undefined,3833,"[9, 3, 6]",True,1,1,1,"[0, 1]","[0, 0, 0]",There is a triangle.,filler,1,"[9, 5, 8]",1,There is a triangle.,"[0, 1]",There is a note.,1,1,exh-subclausal,2,10.766983333333334,True,,,"[0, 0, 0]",1232,True
"[2, 9, 1]",,,,undefined,4119,"[3, 9, 2]",True,0,1,1,"[0, 1]","[0, 0, 0]",There is a club.,filler,1,"[1, 6, 5]",1,There is a spade.,"[0, 1]",There is a tick.,1,1,exh-subclausal,2,10.766983333333334,True,,,"[0, 0, 0]",1207,True
"[8, 2, 6]",,,,undefined,4072,"[2, 1, 8]",True,0,1,1,"[0, 1]","[0, 0, 0]",Some of the symbols are circles.,filler,1,"[7, 2, 1]",1,Some of the symbols are ticks.,"[0, 1]",Some of the symbols are notes.,1,1,exh-subclausal,0,10.766983333333334,True,,,"[0, 0, 0]",1375,True
"[8, 9, 0]",,,,undefined,3968,"[6, 5, 1]",False,3,0,1,"[1, 0]","[3, 0, 0]",6 + 2 = ?,filler,0,"[8, 6, 2]",1,5 + 1 = ?,"[1, 0]",Some of the symbols are notes.,0,1,exh-subclausal,0,10.766983333333334,False,,,"[0, 0, 0]",1343,True
"[0, 3, 7]",,,,undefined,4304,"[3, 5, 8]",True,1,1,1,"[0, 1]","[0, 0, 0]",There are four spades.,filler,1,"[3, 2, 8]",1,There are four spades.,"[0, 1]",There are four diamonds.,1,1,exh-subclausal,1,10.766983333333334,True,,,"[0, 0, 0]",1191,True
"[0, 7, 9]",,,,undefined,4919,"[7, 8, 3]",True,2,1,1,"[0, 1]","[0, 0, 0]",There are four but no more than four hearts.,filler,1,"[4, 9, 8]",1,There are four but no more than four circles.,"[0, 1]",There are four diamonds.,1,1,exh-subclausal,1,10.766983333333334,True,,,"[0, 0, 0]",1279,True
"[5, 8, 2]",,,,undefined,3184,"[17, 8, 9]",True,3,0,1,"[1, 0]","[6, 0, 0]",3 + 4 = ?,response,0,"[7, 3, 4]",1,8 + 9 = ?,"[1, 0]",There are four squares.,1,0,exh-subclausal,1,10.766983333333334,False,,,"[3, 0, 0]",1039,False
"[6, 9, 4]",,,,undefined,3424,"[7, 6, 5]",True,1,1,1,"[0, 1]","[0, 0, 0]",There is a star.,response,0,"[6, 7, 1]",1,There is a circle.,"[1, 0]",There is a star.,0,1,exh-subclausal,2,10.766983333333334,True,,,"[0, 0, 0]",1175,True
"[4, 2, 7]",,,,undefined,5416,"[8, 6, 2]",True,0,0,1,"[1, 0]","[0, 0, 0]",There are four clubs.,response,0,"[1, 9, 3]",1,There are four notes.,"[1, 0]",There are four hearts.,0,0,exh-subclausal,1,10.766983333333334,True,,,"[0, 0, 0]",1719,True
"[1, 9, 5]",,,,undefined,3288,"[6, 5, 0]",True,1,1,1,"[0, 1]","[0, 0, 0]",There is a circle.,filler,1,"[7, 3, 2]",1,There is a star.,"[0, 1]",There is a club.,1,1,exh-subclausal,2,10.766983333333334,True,,,"[0, 0, 0]",1150,True
"[3, 2, 5]",,,,undefined,5088,"[2, 9, 0]",True,0,1,1,"[0, 1]","[0, 0, 0]",There is a square.,response,1,"[5, 8, 3]",1,There is a tick.,"[0, 1]",There is a spade.,1,1,exh-subclausal,2,10.766983333333334,True,,,"[0, 0, 0]",1575,True
"[6, 1, 9]",,,,undefined,4560,"[2, 3, 0]",True,2,0,1,"[1, 0]","[0, 0, 0]",There are four but no more than four clubs.,response,0,"[1, 8, 6]",1,There are four but no more than four ticks.,"[1, 0]",There are four stars.,0,0,exh-subclausal,1,10.766983333333334,True,,,"[0, 0, 0]",1126,True
"[2, 3, 1]",,,,undefined,5688,"[6, 5, 8]",True,2,1,1,"[0, 1]","[0, 0, 0]",Some but not all of the symbols are clubs.,filler,1,"[1, 9, 3]",1,Some but not all of the symbols are stars.,"[0, 1]",Some of the symbols are ticks.,1,1,exh-subclausal,0,10.766983333333334,True,,,"[0, 0, 0]",1127,True
"[5, 8, 0]",,,,undefined,3584,"[7, 3, 1]",True,1,1,1,"[0, 1]","[0, 0, 0]",There are four clubs.,response,0,"[1, 7, 2]",1,There are four circles.,"[1, 0]",There are four squares.,0,1,exh-subclausal,1,10.766983333333334,True,,,"[0, 0, 0]",1143,True
"[4, 9, 5]",,,,undefined,4977,"[5, 8, 1]",True,2,1,1,"[0, 1]","[0, 0, 0]",Some but not all of the symbols are stars.,response,1,"[6, 5, 3]",1,Some but not all of the symbols are squares.,"[0, 1]",Some of the symbols are hearts.,1,1,exh-subclausal,0,10.766983333333334,True,,,"[0, 0, 0]",1144,True
"[0, 6, 5]",,,,undefined,4184,"[4, 8, 3]",True,0,1,1,"[0, 1]","[0, 0, 0]",There are four circles.,filler,0,"[7, 6, 4]",1,There are four hearts.,"[1, 0]",There are four diamonds.,0,1,exh-subclausal,1,10.766983333333334,True,,,"[0, 0, 0]",1016,True
"[4, 9, 8]",,,,undefined,4200,"[5, 3, 7]",True,2,1,1,"[0, 1]","[0, 0, 0]",There is a tick but nothing else.,response,1,"[2, 6, 7]",1,There is a square but nothing else.,"[0, 1]",There is a heart.,1,1,exh-subclausal,2,10.766983333333334,True,,,"[0, 0, 0]",1160,True
"[8, 1, 6]",,,,undefined,3408,"[11, 3, 8]",True,3,1,1,"[0, 1]","[4, 0, 0]",9 + 3 = ?,filler,1,"[12, 9, 3]",1,3 + 8 = ?,"[0, 1]",There are four notes.,0,1,exh-subclausal,1,10.766983333333334,False,,,"[2, 0, 0]",1152,False
"[5, 4, 7]",,,,undefined,3376,"[3, 2, 1]",False,3,0,1,"[1, 0]","[0, 0, 0]",6 + 9 = ?,response,1,"[15, 6, 9]",1,2 + 1 = ?,"[0, 1]",There is a square.,0,1,exh-subclausal,2,10.766983333333334,False,,,"[5, 0, 0]",1168,False
"[9, 4, 8]",,,,undefined,3576,"[5, 0, 5]",False,3,0,1,"[1, 0]","[3, 0, 0]",2 + 7 = ?,filler,1,"[9, 2, 7]",1,0 + 5 = ?,"[0, 1]",There is a triangle.,0,1,exh-subclausal,2,10.766983333333334,False,,,"[9, 0, 0]",1440,False
"[0, 4, 3]",,,,undefined,3184,"[5, 5, 0]",False,3,0,1,"[1, 0]","[0, 0, 0]",1 + 1 = ?,filler,0,"[2, 1, 1]",1,5 + 0 = ?,"[1, 0]",There is a diamond.,0,1,exh-subclausal,2,10.766983333333334,False,,,"[8, 0, 0]",1128,True
"[8, 7, 5]",,,,undefined,3432,"[1, 1, 0]",True,3,0,1,"[1, 0]","[3, 0, 0]",8 + 5 = ?,filler,1,"[13, 8, 5]",1,1 + 0 = ?,"[0, 1]",There are four notes.,1,0,exh-subclausal,1,10.766983333333334,True,,,"[4, 0, 0]",1000,True
"[0, 9, 7]",,,,undefined,3784,"[9, 7, 6]",True,1,0,1,"[1, 0]","[0, 0, 0]",There is a spade.,filler,0,"[3, 5, 0]",1,There is a triangle.,"[1, 0]",There is a diamond.,0,0,exh-subclausal,2,10.766983333333334,True,,,"[0, 0, 0]",1256,True
"[8, 7, 3]",,,,undefined,4256,"[11, 2, 9]",True,3,0,1,"[1, 0]","[3, 0, 0]",6 + 0 = ?,filler,1,"[6, 6, 0]",1,2 + 9 = ?,"[0, 1]",Some of the symbols are notes.,1,0,exh-subclausal,0,10.766983333333334,True,,,"[5, 0, 0]",1408,True
"[3, 1, 2]",,,,undefined,3720,"[8, 8, 0]",False,3,1,1,"[0, 1]","[1, 0, 0]",8 + 1 = ?,filler,1,"[9, 8, 1]",1,8 + 0 = ?,"[0, 1]",There are four spades.,1,0,exh-subclausal,1,10.766983333333334,False,,,"[6, 0, 0]",1119,True
"[5, 6, 1]",,,,undefined,4552,"[4, 2, 2]",False,3,0,1,"[1, 0]","[7, 0, 0]",4 + 5 = ?,response,1,"[9, 4, 5]",1,2 + 2 = ?,"[0, 1]",Some of the symbols are squares.,0,1,exh-subclausal,0,10.766983333333334,False,,,"[2, 0, 0]",1424,False
"[2, 5, 7]",,,,undefined,3752,"[7, 3, 8]",True,2,1,1,"[0, 1]","[0, 0, 0]",There are four but no more than four stars.,filler,0,"[6, 0, 9]",1,There are four but no more than four circles.,"[1, 0]",There are four ticks.,0,1,exh-subclausal,1,10.766983333333334,True,,,"[0, 0, 0]",1032,True
"[3, 8, 7]",,,,undefined,4344,"[8, 5, 1]",True,0,0,1,"[1, 0]","[0, 0, 0]",There are four squares.,response,1,"[5, 9, 0]",1,There are four notes.,"[0, 1]",There are four spades.,1,0,exh-subclausal,1,10.766983333333334,True,,,"[0, 0, 0]",1208,True
"[4, 2, 1]",,,,undefined,4280,"[3, 6, 8]",True,2,1,1,"[0, 1]","[0, 0, 0]",There is a club but nothing else.,response,0,"[1, 7, 0]",1,There is a spade but nothing else.,"[1, 0]",There is a heart.,0,1,exh-subclausal,2,10.766983333333334,True,,,"[0, 0, 0]",1304,True
"[8, 5, 7]",,,,undefined,5608,"[3, 6, 0]",True,0,1,1,"[0, 1]","[0, 0, 0]",Some of the symbols are stars.,filler,0,"[6, 2, 4]",1,Some of the symbols are spades.,"[1, 0]",Some of the symbols are notes.,1,1,exh-subclausal,0,10.766983333333334,False,,,"[0, 0, 0]",1536,False
"[9, 5, 7]",,,,undefined,4528,"[14, 7, 7]",False,3,0,1,"[1, 0]","[2, 0, 0]",1 + 4 = ?,response,0,"[5, 1, 4]",1,7 + 7 = ?,"[1, 0]",Some of the symbols are triangles.,0,1,exh-subclausal,0,10.766983333333334,False,,,"[9, 0, 0]",2208,True
"[8, 9, 5]",,,,undefined,4776,"[2, 3, 9]",True,2,1,1,"[0, 1]","[0, 0, 0]",Some but not all of the symbols are diamonds.,response,1,"[0, 5, 1]",1,Some but not all of the symbols are ticks.,"[0, 1]",Some of the symbols are notes.,1,1,exh-subclausal,0,10.766983333333334,True,,,"[0, 0, 0]",1431,True
"[0, 3, 1]",,,,undefined,4383,"[4, 8, 6]",True,2,0,1,"[1, 0]","[0, 0, 0]",There are four but no more than four squares.,filler,1,"[5, 0, 1]",1,There are four but no more than four hearts.,"[0, 1]",There are four diamonds.,1,0,exh-subclausal,1,10.766983333333334,True,,,"[0, 0, 0]",1062,True
"[7, 2, 0]",,,,undefined,3808,"[9, 1, 5]",True,2,0,1,"[1, 0]","[0, 0, 0]",There is a triangle but nothing else.,filler,1,"[9, 1, 7]",1,There is a triangle but nothing else.,"[0, 1]",There is a circle.,1,0,exh-subclausal,2,10.766983333333334,True,,,"[0, 0, 0]",1063,True
"[5, 9, 0]",,,,undefined,17568,"[3, 0, 5]",True,1,1,1,"[0, 1]","[0, 0, 0]",Some of the symbols are circles.,filler,1,"[7, 6, 3]",1,Some of the symbols are spades.,"[0, 1]",Some of the symbols are squares.,1,1,exh-subclausal,0,10.766983333333334,True,,,"[0, 0, 0]",1143,True
"[2, 5, 0]",,,,undefined,17848,"[9, 6, 5]",True,0,1,1,"[0, 1]","[0, 0, 0]",There is a heart.,filler,0,"[4, 3, 7]",1,There is a triangle.,"[1, 0]",There is a tick.,0,1,exh-subclausal,2,10.766983333333334,True,,,"[0, 0, 0]",12912,True
"[6, 5, 7]",,,,undefined,3784,"[2, 0, 8]",True,1,0,1,"[1, 0]","[0, 0, 0]",There is a triangle.,response,0,"[9, 2, 3]",1,There is a tick.,"[1, 0]",There is a star.,0,0,exh-subclausal,2,10.766983333333334,True,,,"[0, 0, 0]",1512,True
"[8, 9, 4]",,,,undefined,3999,"[1, 9, 3]",True,0,0,1,"[1, 0]","[0, 0, 0]",There are four circles.,response,0,"[7, 6, 0]",1,There are four clubs.,"[1, 0]",There are four notes.,0,0,exh-subclausal,1,10.766983333333334,True,,,"[0, 0, 0]",1175,True
"[7, 0, 3]",,,,undefined,5216,"[8, 3, 9]",True,1,1,1,"[0, 1]","[0, 0, 0]",Some of the symbols are triangles.,response,0,"[9, 0, 4]",1,Some of the symbols are notes.,"[1, 0]",Some of the symbols are circles.,0,1,exh-subclausal,0,10.766983333333334,True,,,"[0, 0, 0]",1750,True
"[2, 4, 5]",,,,undefined,3536,"[7, 7, 0]",False,3,1,1,"[0, 1]","[0, 0, 0]",0 + 6 = ?,response,0,"[6, 0, 6]",1,7 + 0 = ?,"[1, 0]",There are four ticks.,1,0,exh-subclausal,1,10.766983333333334,False,,,"[5, 0, 0]",1279,False
"[9, 0, 4]",,,,undefined,3896,"[17, 8, 9]",False,3,0,1,"[1, 0]","[4, 0, 0]",5 + 7 = ?,filler,1,"[12, 5, 7]",1,8 + 9 = ?,"[0, 1]",Some of the symbols are triangles.,0,1,exh-subclausal,0,10.766983333333334,False,,,"[4, 0, 0]",1711,False
"[1, 2, 4]",,,,undefined,4544,"[8, 7, 3]",True,2,1,1,"[0, 1]","[0, 0, 0]",There is a square but nothing else.,filler,0,"[5, 9, 6]",1,There is a note but nothing else.,"[1, 0]",There is a club.,0,1,exh-subclausal,2,10.766983333333334,True,,,"[0, 0, 0]",1375,True
"[9, 2, 0]",,,,undefined,5168,"[8, 9, 7]",True,2,0,1,"[1, 0]","[0, 0, 0]",Some but not all of the symbols are spades.,filler,1,"[3, 8, 5]",1,Some but not all of the symbols are notes.,"[0, 1]",Some of the symbols are triangles.,1,0,exh-subclausal,0,10.766983333333334,True,,,"[0, 0, 0]",1191,True
"[2, 5, 7]",,,,undefined,6432,"[3, 5, 2]",True,1,0,1,"[1, 0]","[0, 0, 0]",Some of the symbols are notes.,response,1,"[8, 9, 0]",1,Some of the symbols are spades.,"[0, 1]",Some of the symbols are ticks.,1,0,exh-subclausal,0,10.766983333333334,True,,,"[0, 0, 0]",1119,True
"[3, 4, 2]",,,,undefined,3816,"[0, 7, 8]",True,0,1,1,"[0, 1]","[0, 0, 0]",There are four clubs.,filler,0,"[1, 7, 3]",1,There are four diamonds.,"[1, 0]",There are four spades.,0,1,exh-subclausal,1,10.766983333333334,True,,,"[0, 0, 0]",1447,True
"[3, 4, 7]",,,,undefined,3969,"[2, 5, 7]",True,1,1,1,"[0, 1]","[0, 0, 0]",There are four notes.,filler,1,"[8, 5, 1]",1,There are four ticks.,"[0, 1]",There are four spades.,1,1,exh-subclausal,1,10.766983333333334,True,,,"[0, 0, 0]",1359,True
"[8, 6, 5]",,,,undefined,6271,"[3, 0, 2]",True,0,0,1,"[1, 0]","[0, 0, 0]",There is a triangle.,filler,0,"[9, 2, 4]",1,There is a spade.,"[1, 0]",There is a note.,0,0,exh-subclausal,2,10.766983333333334,True,,,"[0, 0, 0]",2007,True
"[0, 4, 7]",,,,undefined,4760,"[5, 1, 3]",True,2,0,1,"[1, 0]","[0, 0, 0]",There are four but no more than four stars.,response,0,"[6, 5, 3]",1,There are four but no more than four squares.,"[1, 0]",There are four diamonds.,0,0,exh-subclausal,1,10.766983333333334,True,,,"[0, 0, 0]",1175,True
"[3, 9, 7]",,,,undefined,4640,"[9, 5, 7]",True,0,1,1,"[0, 1]","[0, 0, 0]",Some of the symbols are notes.,response,1,"[8, 0, 7]",1,Some of the symbols are triangles.,"[0, 1]",Some of the symbols are spades.,1,1,exh-subclausal,0,10.766983333333334,True,,,"[0, 0, 0]",1439,True
,bot_check,"[0, 'Elizabeth']",Elizabeth,undefined,,,,,,,,,,,,,2,,,,,,,,10.56045,,,1,,,
"[7, 0, 4]",,,,undefined,10076,"[9, 0, 8]",True,1,0,0,"[1, 0]","[0, 0, 0]",There is a club.,response,1,"[1, 2, 8]",2,There is a triangle.,"[0, 1]",There is a circle.,1,0,exh-subclausal,2,10.56045,True,,,"[0, 0, 0]",5109,True
"[8, 5, 3]",,,,undefined,18636,"[15, 7, 8]",True,3,0,1,"[1, 0]","[5, 0, 0]",3 + 7 = ?,response,1,"[10, 3, 7]",2,7 + 8 = ?,"[0, 1]",There are four notes.,1,0,exh-subclausal,1,10.56045,True,,,"[9, 0, 0]",8698,True
"[6, 7, 2]",,,,undefined,6431,"[6, 5, 8]",True,2,0,1,"[1, 0]","[0, 0, 0]",There is a heart but nothing else.,filler,0,"[4, 5, 9]",2,There is a star but nothing else.,"[1, 0]",There is a star.,0,0,exh-subclausal,2,10.56045,True,,,"[0, 0, 0]",2006,True
"[2, 8, 6]",,,,undefined,6656,"[8, 3, 5]",True,0,1,1,"[0, 1]","[0, 0, 0]",There are four notes.,response,1,"[8, 3, 7]",2,There are four notes.,"[0, 1]",There are four ticks.,1,1,exh-subclausal,1,10.56045,True,,,"[0, 0, 0]",2906,True
"[7, 9, 6]",,,,undefined,5331,"[1, 7, 0]",True,1,0,1,"[1, 0]","[0, 0, 0]",Some of the symbols are notes.,filler,1,"[8, 1, 9]",2,Some of the symbols are clubs.,"[0, 1]",Some of the symbols are circles.,1,0,exh-subclausal,0,10.56045,True,,,"[0, 0, 0]",1475,True
"[3, 5, 0]",,,,undefined,6308,"[5, 0, 9]",True,2,0,1,"[1, 0]","[0, 0, 0]",There are four but no more than four notes.,response,0,"[8, 0, 2]",2,There are four but no more than four squares.,"[1, 0]",There are four spades.,0,0,exh-subclausal,1,10.56045,True,,,"[0, 0, 0]",1774,True
"[0, 5, 3]",,,,undefined,6609,"[8, 2, 6]",False,3,0,1,"[1, 0]","[4, 0, 0]",7 + 4 = ?,filler,0,"[11, 7, 4]",2,2 + 6 = ?,"[1, 0]",Some of the symbols are diamonds.,0,1,exh-subclausal,0,10.56045,False,,,"[9, 0, 0]",2066,True
"[7, 4, 3]",,,,undefined,6532,"[7, 1, 0]",True,2,1,1,"[0, 1]","[0, 0, 0]",Some but not all of the symbols are spades.,filler,1,"[3, 2, 5]",2,Some but not all of the symbols are circles.,"[0, 1]",Some of the symbols are circles.,1,1,exh-subclausal,0,10.56045,True,,,"[0, 0, 0]",1670,True
"[7, 1, 6]",,,,undefined,6158,"[5, 6, 3]",True,2,1,0,"[0, 1]","[0, 0, 0]",There is a square but nothing else.,response,0,"[5, 9, 8]",2,There is a square but nothing else.,"[1, 0]",There is a circle.,0,1,exh-subclausal,2,10.56045,True,,,"[0, 0, 0]",2804,True
"[1, 4, 3]",,,,undefined,7779,"[5, 1, 8]",True,2,0,1,"[1, 0]","[0, 0, 0]",Some but not all of the symbols are diamonds.,filler,1,"[0, 2, 3]",2,Some but not all of the symbols are squares.,"[0, 1]",Some of the symbols are clubs.,1,0,exh-subclausal,0,10.56045,True,,,"[0, 0, 0]",2754,True
"[3, 6, 2]",,,,undefined,5917,"[4, 3, 1]",False,3,1,1,"[0, 1]","[5, 0, 0]",3 + 8 = ?,filler,0,"[11, 3, 8]",2,3 + 1 = ?,"[1, 0]",There is a spade.,1,0,exh-subclausal,2,10.56045,False,,,"[1, 0, 0]",1766,False
"[1, 8, 9]",,,,undefined,6091,"[11, 6, 5]",True,3,1,1,"[0, 1]","[0, 0, 0]",7 + 4 = ?,response,0,"[11, 7, 4]",2,6 + 5 = ?,"[1, 0]",Some of the symbols are clubs.,0,1,exh-subclausal,0,10.56045,True,,,"[0, 0, 0]",1934,True
"[2, 9, 3]",,,,undefined,10128,"[0, 2, 4]",True,1,1,1,"[0, 1]","[0, 0, 0]",Some of the symbols are diamonds.,response,1,"[0, 7, 6]",2,Some of the symbols are diamonds.,"[0, 1]",Some of the symbols are ticks.,1,1,exh-subclausal,0,10.56045,True,,,"[0, 0, 0]",1631,True
"[0, 7, 4]",,,,undefined,7052,"[2, 7, 9]",True,0,1,1,"[0, 1]","[0, 0, 0]",There is a star.,filler,1,"[6, 8, 5]",2,There is a tick.,"[0, 1]",There is a diamond.,1,1,exh-subclausal,2,10.56045,True,,,"[0, 0, 0]",3528,True
"[9, 4, 3]",,,,undefined,10292,"[15, 9, 6]",True,3,0,0,"[1, 0]","[7, 0, 0]",7 + 8 = ?,response,0,"[15, 7, 8]",2,9 + 6 = ?,"[1, 0]",There is a triangle.,1,0,exh-subclausal,2,10.56045,False,,,"[9, 0, 0]",1823,False
"[6, 7, 2]",,,,undefined,4979,"[2, 1, 8]",True,0,1,1,"[0, 1]","[0, 0, 0]",There are four notes.,filler,0,"[8, 0, 1]",2,There are four ticks.,"[1, 0]",There are four stars.,0,1,exh-subclausal,1,10.56045,True,,,"[0, 0, 0]",1618,True
"[4, 0, 2]",,,,undefined,4833,"[4, 0, 4]",False,3,1,0,"[0, 1]","[2, 0, 0]",5 + 5 = ?,response,0,"[10, 5, 5]",2,0 + 4 = ?,"[1, 0]",There is a heart.,1,0,exh-subclausal,2,10.56045,False,,,"[5, 0, 0]",1942,False
"[4, 5, 0]",,,,undefined,5137,"[5, 1, 4]",True,3,1,1,"[0, 1]","[1, 0, 0]",0 + 3 = ?,response,1,"[3, 0, 3]",2,1 + 4 = ?,"[0, 1]",There are four hearts.,0,1,exh-subclausal,1,10.56045,False,,,"[9, 0, 0]",2169,False
"[2, 1, 0]",,,,undefined,5054,"[5, 9, 0]",True,2,1,1,"[0, 1]","[0, 0, 0]",There are four but no more than four notes.,response,0,"[8, 2, 0]",2,There are four but no more than four squares.,"[1, 0]",There are four ticks.,0,1,exh-subclausal,1,10.56045,True,,,"[0, 0, 0]",1903,True
"[6, 3, 5]",,,,undefined,5496,"[1, 3, 5]",True,0,1,1,"[0, 1]","[0, 0, 0]",There are four notes.,response,0,"[8, 2, 9]",2,There are four clubs.,"[1, 0]",There are four stars.,0,1,exh-subclausal,1,10.56045,True,,,"[0, 0, 0]",1728,True
"[3, 9, 2]",,,,undefined,5788,"[11, 3, 8]",False,3,1,1,"[0, 1]","[8, 0, 0]",4 + 9 = ?,filler,1,"[13, 4, 9]",2,3 + 8 = ?,"[0, 1]",Some of the symbols are spades.,1,0,exh-subclausal,0,10.56045,False,,,"[0, 0, 0]",1714,True
"[4, 9, 3]",,,,undefined,6636,"[2, 1, 7]",True,0,1,0,"[0, 1]","[0, 0, 0]",There is a star.,response,1,"[6, 5, 1]",2,There is a tick.,"[0, 1]",There is a heart.,1,1,exh-subclausal,2,10.56045,True,,,"[0, 0, 0]",2729,True
"[1, 2, 6]",,,,undefined,12255,"[4, 6, 7]",True,2,0,1,"[1, 0]","[0, 0, 0]",Some but not all of the symbols are circles.,filler,0,"[7, 8, 0]",2,Some but not all of the symbols are hearts.,"[1, 0]",Some of the symbols are clubs.,0,0,exh-subclausal,0,10.56045,True,,,"[0, 0, 0]",2892,True
"[2, 6, 8]",,,,undefined,4078,"[2, 9, 1]",True,1,0,1,"[1, 0]","[0, 0, 0]",There are four stars.,filler,1,"[6, 7, 5]",2,There are four ticks.,"[0, 1]",There are four ticks.,1,0,exh-subclausal,1,10.56045,True,,,"[0, 0, 0]",1271,True
"[6, 2, 8]",,,,undefined,6208,"[13, 4, 9]",True,3,0,1,"[1, 0]","[2, 0, 0]",1 + 0 = ?,filler,1,"[1, 1, 0]",2,4 + 9 = ?,"[0, 1]",There is a star.,1,0,exh-subclausal,2,10.56045,True,,,"[8, 0, 0]",1584,True
"[7, 6, 1]",,,,undefined,5680,"[0, 1, 2]",True,0,1,0,"[0, 1]","[0, 0, 0]",There is a tick.,response,0,"[2, 8, 6]",2,There is a diamond.,"[1, 0]",There is a circle.,0,1,exh-subclausal,2,10.56045,True,,,"[0, 0, 0]",1765,True
"[6, 0, 7]",,,,undefined,13399,"[6, 5, 7]",True,0,1,1,"[0, 1]","[0, 0, 0]",Some of the symbols are squares.,response,1,"[5, 0, 9]",2,Some of the symbols are stars.,"[0, 1]",Some of the symbols are stars.,1,1,exh-subclausal,0,10.56045,True,,,"[0, 0, 0]",2059,True
"[6, 8, 2]",,,,undefined,7811,"[7, 4, 1]",True,0,1,0,"[0, 1]","[0, 0, 0]",There is a club.,response,1,"[1, 6, 8]",2,There is a circle.,"[0, 1]",There is a star.,1,1,exh-subclausal,2,10.56045,True,,,"[0, 0, 0]",1940,True
"[4, 5, 8]",,,,undefined,4405,"[4, 1, 0]",True,1,1,1,"[0, 1]","[0, 0, 0]",There is a club.,response,1,"[1, 3, 0]",2,There is a heart.,"[0, 1]",There is a heart.,1,1,exh-subclausal,2,10.56045,True,,,"[0, 0, 0]",1877,True
"[2, 8, 4]",,,,undefined,4246,"[2, 3, 1]",True,0,1,1,"[0, 1]","[0, 0, 0]",There are four notes.,filler,0,"[8, 1, 4]",2,There are four ticks.,"[1, 0]",There are four ticks.,0,1,exh-subclausal,1,10.56045,True,,,"[0, 0, 0]",1199,True
"[1, 3, 6]",,,,undefined,4077,"[6, 7, 4]",True,1,0,1,"[1, 0]","[0, 0, 0]",There are four notes.,response,1,"[8, 9, 6]",2,There are four stars.,"[0, 1]",There are four clubs.,1,0,exh-subclausal,1,10.56045,True,,,"[0, 0, 0]",1693,True
"[9, 4, 5]",,,,undefined,3561,"[3, 2, 1]",True,3,0,1,"[1, 0]","[1, 0, 0]",6 + 6 = ?,filler,0,"[12, 6, 6]",2,2 + 1 = ?,"[1, 0]",There are four triangles.,1,0,exh-subclausal,1,10.56045,False,,,"[0, 0, 0]",1071,False
"[5, 7, 1]",,,,undefined,4467,"[0, 4, 3]",True,1,1,1,"[0, 1]","[0, 0, 0]",There are four ticks.,response,0,"[2, 0, 4]",2,There are four diamonds.,"[1, 0]",There are four squares.,0,1,exh-subclausal,1,10.56045,True,,,"[0, 0, 0]",1822,True
"[2, 9, 7]",,,,undefined,4998,"[10, 1, 9]",True,3,0,1,"[1, 0]","[8, 0, 0]",8 + 2 = ?,response,1,"[10, 8, 2]",2,1 + 9 = ?,"[0, 1]",Some of the symbols are ticks.,1,0,exh-subclausal,0,10.56045,True,,,"[5, 0, 0]",2582,True
"[9, 3, 2]",,,,undefined,6949,"[3, 6, 0]",False,0,0,1,"[1, 0]","[0, 0, 0]",There is a club.,filler,1,"[1, 3, 7]",2,There is a spade.,"[0, 1]",There is a triangle.,1,1,exh-subclausal,2,10.56045,False,,,"[0, 0, 0]",2190,True
"[8, 0, 4]",,,,undefined,7393,"[6, 8, 9]",True,2,1,1,"[0, 1]","[0, 0, 0]",There are four but no more than four notes.,response,0,"[8, 1, 2]",2,There are four but no more than four stars.,"[1, 0]",There are four notes.,0,1,exh-subclausal,1,10.56045,True,,,"[0, 0, 0]",3613,True
"[3, 4, 5]",,,,undefined,5855,"[8, 5, 7]",True,1,0,1,"[1, 0]","[0, 0, 0]",There is a diamond.,filler,1,"[0, 4, 5]",2,There is a note.,"[0, 1]",There is a spade.,1,0,exh-subclausal,2,10.56045,True,,,"[0, 0, 0]",2379,True
"[7, 3, 5]",,,,undefined,3937,"[4, 3, 1]",True,1,1,1,"[0, 1]","[0, 0, 0]",There are four squares.,filler,0,"[5, 7, 8]",2,There are four hearts.,"[1, 0]",There are four circles.,0,1,exh-subclausal,1,10.56045,True,,,"[0, 0, 0]",1514,True
"[6, 4, 8]",,,,undefined,4003,"[0, 1, 2]",True,1,1,1,"[0, 1]","[0, 0, 0]",There are four clubs.,response,1,"[1, 7, 5]",2,There are four diamonds.,"[0, 1]",There are four stars.,1,1,exh-subclausal,1,10.56045,True,,,"[0, 0, 0]",1604,True
"[5, 1, 9]",,,,undefined,4387,"[6, 2, 4]",False,3,1,1,"[0, 1]","[1, 0, 0]",4 + 4 = ?,filler,1,"[8, 4, 4]",2,2 + 4 = ?,"[0, 1]",Some of the symbols are squares.,1,0,exh-subclausal,0,10.56045,False,,,"[6, 0, 0]",2107,True
"[3, 1, 2]",,,,undefined,4726,"[2, 8, 4]",True,2,1,1,"[0, 1]","[0, 0, 0]",There are four but no more than four circles.,filler,1,"[7, 8, 0]",2,There are four but no more than four ticks.,"[0, 1]",There are four spades.,1,1,exh-subclausal,1,10.56045,True,,,"[0, 0, 0]",1693,True
"[8, 7, 4]",,,,undefined,4365,"[12, 3, 9]",False,3,0,1,"[1, 0]","[4, 0, 0]",1 + 7 = ?,filler,1,"[8, 1, 7]",2,3 + 9 = ?,"[0, 1]",There are four notes.,0,1,exh-subclausal,1,10.56045,False,,,"[4, 0, 0]",1628,False
"[3, 4, 6]",,,,undefined,8939,"[5, 1, 8]",True,1,1,1,"[0, 1]","[0, 0, 0]",Some of the symbols are clubs.,filler,1,"[1, 7, 5]",2,Some of the symbols are squares.,"[0, 1]",Some of the symbols are spades.,1,1,exh-subclausal,0,10.56045,True,,,"[0, 0, 0]",1900,True
"[5, 2, 1]",,,,undefined,5826,"[4, 0, 1]",True,0,1,1,"[0, 1]","[0, 0, 0]",There are four clubs.,filler,0,"[1, 3, 5]",2,There are four hearts.,"[1, 0]",There are four squares.,0,1,exh-subclausal,1,10.56045,True,,,"[0, 0, 0]",1230,True
"[6, 4, 2]",,,,undefined,6402,"[7, 8, 4]",True,1,0,0,"[1, 0]","[0, 0, 0]",There is a heart.,response,1,"[4, 1, 6]",2,There is a circle.,"[0, 1]",There is a star.,1,0,exh-subclausal,2,10.56045,True,,,"[0, 0, 0]",2073,True
"[4, 2, 3]",,,,undefined,7785,"[5, 1, 2]",True,0,1,1,"[0, 1]","[0, 0, 0]",Some of the symbols are stars.,filler,1,"[6, 9, 7]",2,Some of the symbols are squares.,"[0, 1]",Some of the symbols are hearts.,1,1,exh-subclausal,0,10.56045,True,,,"[0, 0, 0]",1601,True
"[5, 2, 0]",,,,undefined,7328,"[17, 8, 9]",True,3,0,1,"[1, 0]","[3, 0, 0]",7 + 3 = ?,filler,0,"[10, 7, 3]",2,8 + 9 = ?,"[1, 0]",There are four squares.,1,0,exh-subclausal,1,10.56045,False,,,"[9, 0, 0]",1117,False
"[8, 7, 5]",,,,undefined,5318,"[5, 3, 7]",True,2,1,1,"[0, 1]","[0, 0, 0]",Some but not all of the symbols are ticks.,response,0,"[2, 3, 4]",2,Some but not all of the symbols are squares.,"[1, 0]",Some of the symbols are notes.,0,1,exh-subclausal,0,10.56045,True,,,"[0, 0, 0]",1875,True
"[1, 9, 8]",,,,undefined,6519,"[4, 1, 3]",False,3,1,1,"[0, 1]","[4, 0, 0]",3 + 7 = ?,filler,1,"[10, 3, 7]",2,1 + 3 = ?,"[0, 1]",There is a club.,0,0,exh-subclausal,2,10.56045,False,,,"[4, 0, 0]",3028,False
"[4, 0, 5]",,,,undefined,22476,"[8, 2, 0]",True,2,0,1,"[1, 0]","[0, 0, 0]",There is a diamond but nothing else.,response,1,"[0, 8, 9]",2,There is a note but nothing else.,"[0, 1]",There is a heart.,1,0,exh-subclausal,2,10.56045,True,,,"[0, 0, 0]",18141,True
"[8, 2, 9]",,,,undefined,8760,"[1, 7, 9]",True,1,1,1,"[0, 1]","[0, 0, 0]",Some of the symbols are circles.,filler,0,"[7, 3, 1]",2,Some of the symbols are clubs.,"[1, 0]",Some of the symbols are notes.,0,1,exh-subclausal,0,10.56045,True,,,"[0, 0, 0]",3118,True
"[7, 3, 8]",,,,undefined,4222,"[2, 1, 5]",True,2,0,1,"[1, 0]","[0, 0, 0]",There are four but no more than four stars.,filler,0,"[6, 3, 4]",2,There are four but no more than four ticks.,"[1, 0]",There are four circles.,0,0,exh-subclausal,1,10.56045,True,,,"[0, 0, 0]",1261,True
"[6, 2, 3]",,,,undefined,3916,"[8, 2, 6]",True,3,0,0,"[1, 0]","[4, 0, 0]",1 + 1 = ?,response,1,"[2, 1, 1]",2,2 + 6 = ?,"[0, 1]",There is a star.,1,0,exh-subclausal,2,10.56045,True,,,"[3, 0, 0]",1964,True
"[7, 3, 6]",,,,undefined,5779,"[8, 6, 1]",True,0,0,0,"[1, 0]","[0, 0, 0]",Some of the symbols are ticks.,response,1,"[2, 0, 6]",2,Some of the symbols are notes.,"[0, 1]",Some of the symbols are circles.,1,0,exh-subclausal,0,10.56045,True,,,"[0, 0, 0]",1670,True
"[2, 9, 3]",,,,undefined,4116,"[8, 4, 5]",True,2,0,1,"[1, 0]","[0, 0, 0]",There are four but no more than four ticks.,filler,0,"[2, 1, 4]",2,There are four but no more than four notes.,"[1, 0]",There are four ticks.,0,0,exh-subclausal,1,10.56045,True,,,"[0, 0, 0]",1238,True
"[1, 7, 4]",,,,undefined,5403,"[1, 2, 4]",True,2,1,1,"[0, 1]","[0, 0, 0]",There is a square but nothing else.,response,1,"[5, 6, 7]",2,There is a club but nothing else.,"[0, 1]",There is a club.,1,1,exh-subclausal,2,10.56045,True,,,"[0, 0, 0]",1928,True
"[3, 7, 8]",,,,undefined,6498,"[6, 7, 8]",True,1,1,1,"[0, 1]","[0, 0, 0]",Some of the symbols are diamonds.,filler,1,"[0, 1, 8]",2,Some of the symbols are stars.,"[0, 1]",Some of the symbols are spades.,1,1,exh-subclausal,0,10.56045,True,,,"[0, 0, 0]",1657,True
"[9, 7, 1]",,,,undefined,3833,"[3, 8, 6]",True,1,1,1,"[0, 1]","[0, 0, 0]",There are four hearts.,filler,1,"[4, 2, 3]",2,There are four spades.,"[0, 1]",There are four triangles.,1,1,exh-subclausal,1,10.56045,True,,,"[0, 0, 0]",1134,True
"[2, 1, 0]",,,,undefined,5623,"[1, 0, 9]",True,2,0,1,"[1, 0]","[0, 0, 0]",There is a spade but nothing else.,filler,1,"[3, 8, 2]",2,There is a club but nothing else.,"[0, 1]",There is a tick.,1,0,exh-subclausal,2,10.56045,True,,,"[0, 0, 0]",1623,True
"[6, 2, 5]",,,,undefined,8278,"[1, 5, 2]",True,2,0,1,"[1, 0]","[0, 0, 0]",Some but not all of the symbols are stars.,response,0,"[6, 0, 5]",2,Some but not all of the symbols are clubs.,"[1, 0]",Some of the symbols are stars.,0,0,exh-subclausal,0,10.56045,True,,,"[0, 0, 0]",1937,True
"[0, 4, 5]",,,,undefined,5985,"[5, 6, 8]",True,0,0,1,"[1, 0]","[0, 0, 0]",Some of the symbols are spades.,response,1,"[3, 7, 6]",2,Some of the symbols are squares.,"[0, 1]",Some of the symbols are diamonds.,1,0,exh-subclausal,0,10.56045,True,,,"[0, 0, 0]",2267,True
"[0, 2, 7]",,,,undefined,5786,"[13, 4, 9]",True,3,0,1,"[1, 0]","[2, 0, 0]",2 + 9 = ?,filler,1,"[11, 2, 9]",2,4 + 9 = ?,"[0, 1]",Some of the symbols are diamonds.,1,0,exh-subclausal,0,10.56045,True,,,"[5, 0, 0]",1946,True
"[0, 7, 1]",,,,undefined,6771,"[1, 7, 9]",True,1,0,1,"[1, 0]","[0, 0, 0]",There is a spade.,filler,1,"[3, 9, 7]",2,There is a club.,"[0, 1]",There is a diamond.,1,0,exh-subclausal,2,10.56045,True,,,"[0, 0, 0]",1928,True
"[5, 3, 8]",,,,undefined,4537,"[9, 0, 1]",True,0,0,1,"[1, 0]","[0, 0, 0]",There are four hearts.,response,1,"[4, 8, 9]",2,There are four triangles.,"[0, 1]",There are four squares.,1,0,exh-subclausal,1,10.56045,True,,,"[0, 0, 0]",1433,True
"[4, 9, 8]",,,,undefined,5063,"[8, 1, 7]",True,3,0,1,"[1, 0]","[1, 0, 0]",2 + 3 = ?,response,1,"[5, 2, 3]",2,1 + 7 = ?,"[0, 1]",Some of the symbols are hearts.,1,0,exh-subclausal,0,10.56045,True,,,"[1, 0, 0]",1674,True
"[7, 1, 6]",,,,undefined,5657,"[7, 1, 3]",True,2,1,1,"[0, 1]","[0, 0, 0]",Some but not all of the symbols are triangles.,filler,0,"[9, 3, 2]",2,Some but not all of the symbols are circles.,"[1, 0]",Some of the symbols are circles.,0,1,exh-subclausal,0,10.56045,True,,,"[0, 0, 0]",1878,True
"[1, 8, 5]",,,,undefined,5027,"[3, 7, 6]",False,1,0,1,"[1, 0]","[0, 0, 0]",There is a diamond.,filler,0,"[0, 3, 5]",2,There is a spade.,"[1, 0]",There is a club.,0,1,exh-subclausal,2,10.56045,False,,,"[0, 0, 0]",1712,True
"[9, 2, 0]",,,,undefined,4952,"[8, 3, 0]",True,2,1,1,"[0, 1]","[0, 0, 0]",There is a star but nothing else.,response,1,"[6, 0, 7]",2,There is a note but nothing else.,"[0, 1]",There is a triangle.,1,1,exh-subclausal,2,10.56045,True,,,"[0, 0, 0]",1130,True
"[1, 2, 5]",,,,undefined,4346,"[0, 0, 0]",True,3,1,1,"[0, 1]","[8, 0, 0]",0 + 9 = ?,response,1,"[9, 0, 9]",2,0 + 0 = ?,"[0, 1]",There are four clubs.,0,1,exh-subclausal,1,10.56045,False,,,"[5, 0, 0]",1618,False
"[8, 3, 9]",,,,undefined,6772,"[8, 2, 4]",True,0,1,1,"[0, 1]","[0, 0, 0]",There is a heart.,filler,0,"[4, 0, 9]",2,There is a note.,"[1, 0]",There is a note.,0,1,exh-subclausal,2,10.56045,True,,,"[0, 0, 0]",1865,True
"[4, 6, 1]",,,,undefined,4030,"[6, 7, 3]",True,1,1,1,"[0, 1]","[0, 0, 0]",There is a heart.,filler,1,"[4, 6, 3]",2,There is a star.,"[0, 1]",There is a heart.,1,1,exh-subclausal,2,10.56045,True,,,"[0, 0, 0]",1480,True
"[6, 2, 8]",,,,undefined,4813,"[8, 9, 6]",True,2,1,1,"[0, 1]","[0, 0, 0]",There is a star but nothing else.,filler,0,"[6, 3, 8]",2,There is a note but nothing else.,"[1, 0]",There is a star.,0,1,exh-subclausal,2,10.56045,True,,,"[0, 0, 0]",1663,True
"[9, 0, 6]",,,,undefined,4712,"[8, 0, 8]",True,3,0,1,"[1, 0]","[5, 0, 0]",9 + 3 = ?,response,0,"[12, 9, 3]",2,0 + 8 = ?,"[1, 0]",There are four triangles.,1,0,exh-subclausal,1,10.56045,False,,,"[0, 0, 0]",1906,False
"[5, 8, 9]",,,,undefined,3697,"[5, 0, 3]",True,1,0,1,"[1, 0]","[0, 0, 0]",There are four notes.,response,1,"[8, 3, 5]",2,There are four squares.,"[0, 1]",There are four squares.,1,0,exh-subclausal,1,10.56045,True,,,"[0, 0, 0]",1626,True
"[3, 6, 5]",,,,undefined,3644,"[5, 4, 1]",False,3,0,1,"[1, 0]","[2, 0, 0]",1 + 9 = ?,response,0,"[10, 1, 9]",2,4 + 1 = ?,"[1, 0]",There is a spade.,0,1,exh-subclausal,2,10.56045,False,,,"[9, 0, 0]",1537,True
"[4, 2, 8]",,,,undefined,3970,"[5, 9, 1]",True,2,0,1,"[1, 0]","[0, 0, 0]",There are four but no more than four ticks.,filler,1,"[2, 3, 1]",2,There are four but no more than four squares.,"[0, 1]",There are four hearts.,1,0,exh-subclausal,1,10.56045,True,,,"[0, 0, 0]",1429,True
"[2, 3, 7]",,,,undefined,3990,"[14, 8, 6]",False,3,0,1,"[1, 0]","[7, 0, 0]",1 + 9 = ?,filler,0,"[10, 1, 9]",2,8 + 6 = ?,"[1, 0]",There is a tick.,0,1,exh-subclausal,2,10.56045,False,,,"[1, 0, 0]",1133,True
"[5, 4, 3]",,,,undefined,6806,"[2, 8, 1]",True,0,1,1,"[0, 1]","[0, 0, 0]",Some of the symbols are notes.,filler,0,"[8, 3, 6]",2,Some of the symbols are ticks.,"[1, 0]",Some of the symbols are squares.,0,1,exh-subclausal,0,10.56045,True,,,"[0, 0, 0]",1240,True
"[0, 6, 2]",,,,undefined,7921,"[1, 7, 2]",True,0,0,1,"[1, 0]","[0, 0, 0]",Some of the symbols are ticks.,filler,0,"[2, 9, 7]",2,Some of the symbols are clubs.,"[1, 0]",Some of the symbols are diamonds.,0,0,exh-subclausal,0,10.56045,True,,,"[0, 0, 0]",2672,True
"[0, 8, 6]",,,,undefined,4729,"[5, 4, 1]",True,1,0,1,"[1, 0]","[0, 0, 0]",Some of the symbols are triangles.,response,0,"[9, 4, 1]",2,Some of the symbols are squares.,"[1, 0]",Some of the symbols are diamonds.,0,0,exh-subclausal,0,10.56045,True,,,"[0, 0, 0]",1644,True
"[7, 9, 1]",,,,undefined,6600,"[3, 4, 9]",True,2,0,1,"[1, 0]","[0, 0, 0]",Some but not all of the symbols are diamonds.,response,0,"[0, 8, 4]",2,Some but not all of the symbols are spades.,"[1, 0]",Some of the symbols are circles.,0,0,exh-subclausal,0,10.56045,True,,,"[0, 0, 0]",2092,True
"[9, 7, 4]",,,,undefined,7039,"[1, 3, 7]",False,1,1,1,"[0, 1]","[0, 0, 0]",Some of the symbols are hearts.,response,0,"[4, 0, 2]",2,Some of the symbols are clubs.,"[1, 0]",Some of the symbols are triangles.,1,0,exh-subclausal,0,10.56045,False,,,"[0, 0, 0]",1869,False
"[7, 5, 1]",,,,undefined,3229,"[5, 1, 6]",True,1,0,1,"[1, 0]","[0, 0, 0]",There are four ticks.,filler,0,"[2, 4, 7]",2,There are four squares.,"[1, 0]",There are four circles.,0,0,exh-subclausal,1,10.56045,True,,,"[0, 0, 0]",907,True
"[6, 4, 8]",,,,undefined,4855,"[2, 5, 9]",True,1,0,1,"[1, 0]","[0, 0, 0]",Some of the symbols are hearts.,response,0,"[4, 8, 2]",2,Some of the symbols are ticks.,"[1, 0]",Some of the symbols are stars.,0,0,exh-subclausal,0,10.56045,True,,,"[0, 0, 0]",1589,True
"[7, 0, 6]",,,,undefined,7651,"[0, 3, 7]",True,0,1,1,"[0, 1]","[0, 0, 0]",Some of the symbols are squares.,filler,0,"[5, 7, 6]",2,Some of the symbols are diamonds.,"[1, 0]",Some of the symbols are circles.,0,1,exh-subclausal,0,10.56045,True,,,"[0, 0, 0]",1613,True
"[5, 0, 4]",,,,undefined,5157,"[7, 3, 4]",True,0,1,1,"[0, 1]","[0, 0, 0]",There is a spade.,filler,1,"[3, 4, 2]",2,There is a circle.,"[0, 1]",There is a square.,1,1,exh-subclausal,2,10.56045,True,,,"[0, 0, 0]",1243,True
"[2, 0, 5]",,,,undefined,7022,"[1, 6, 8]",True,1,1,1,"[0, 1]","[0, 0, 0]",There is a diamond.,response,0,"[0, 3, 1]",2,There is a club.,"[1, 0]",There is a tick.,1,1,exh-subclausal,2,10.56045,False,,,"[0, 0, 0]",1361,False
"[9, 2, 8]",,,,undefined,4122,"[17, 8, 9]",False,3,0,1,"[1, 0]","[3, 0, 0]",5 + 2 = ?,response,0,"[7, 5, 2]",2,8 + 9 = ?,"[1, 0]",Some of the symbols are triangles.,0,1,exh-subclausal,0,10.56045,False,,,"[2, 0, 0]",1410,True
"[6, 3, 0]",,,,undefined,4418,"[2, 6, 9]",True,0,1,0,"[0, 1]","[0, 0, 0]",There are four triangles.,response,0,"[9, 3, 5]",2,There are four ticks.,"[1, 0]",There are four stars.,0,1,exh-subclausal,1,10.56045,True,,,"[0, 0, 0]",1609,True
"[2, 7, 3]",,,,undefined,6453,"[4, 1, 5]",True,0,0,1,"[1, 0]","[0, 0, 0]",Some of the symbols are ticks.,response,0,"[2, 6, 0]",2,Some of the symbols are hearts.,"[1, 0]",Some of the symbols are ticks.,0,0,exh-subclausal,0,10.56045,True,,,"[0, 0, 0]",1295,True
"[1, 6, 0]",,,,undefined,4719,"[3, 7, 2]",True,2,0,1,"[1, 0]","[0, 0, 0]",There are four but no more than four hearts.,response,0,"[4, 1, 3]",2,There are four but no more than four spades.,"[1, 0]",There are four clubs.,0,0,exh-subclausal,1,10.56045,True,,,"[0, 0, 0]",1496,True
"[5, 6, 2]",,,,undefined,4632,"[2, 2, 0]",True,3,0,1,"[1, 0]","[2, 0, 0]",4 + 2 = ?,filler,0,"[6, 4, 2]",2,2 + 0 = ?,"[1, 0]",There are four squares.,0,0,exh-subclausal,1,10.56045,True,,,"[9, 0, 0]",1632,True
"[3, 2, 9]",,,,undefined,4677,"[7, 0, 6]",True,0,0,1,"[1, 0]","[0, 0, 0]",There are four clubs.,filler,1,"[1, 6, 3]",2,There are four circles.,"[0, 1]",There are four spades.,1,0,exh-subclausal,1,10.56045,True,,,"[0, 0, 0]",1571,True
"[0, 7, 5]",,,,undefined,6337,"[0, 6, 7]",True,0,0,0,"[1, 0]","[0, 0, 0]",There is a square.,response,0,"[5, 9, 3]",2,There is a diamond.,"[1, 0]",There is a diamond.,0,0,exh-subclausal,2,10.56045,True,,,"[0, 0, 0]",2430,True
"[3, 2, 8]",,,,undefined,4402,"[8, 6, 0]",True,2,1,1,"[0, 1]","[0, 0, 0]",There is a star but nothing else.,filler,0,"[6, 5, 4]",2,There is a note but nothing else.,"[1, 0]",There is a spade.,0,1,exh-subclausal,2,10.56045,True,,,"[0, 0, 0]",1796,True
"[9, 6, 2]",,,,undefined,7421,"[9, 4, 0]",True,2,1,1,"[0, 1]","[0, 0, 0]",Some but not all of the symbols are clubs.,response,1,"[1, 5, 0]",2,Some but not all of the symbols are triangles.,"[0, 1]",Some of the symbols are triangles.,1,1,exh-subclausal,0,10.56045,True,,,"[0, 0, 0]",2232,True
,bot_check,"[0, 'Margaret']",Margaret,undefined,,,,,,,,,,,,,3,,,,,,,,12.411183333333334,,,1,,,
"[4, 9, 8]",,,,undefined,7087,"[1, 0, 5]",True,0,1,1,"[0, 1]","[0, 0, 0]",There is a diamond.,filler,0,"[0, 4, 1]",3,There is a club.,"[1, 0]",There is a heart.,0,1,exh-subclausal,2,12.411183333333334,True,,,"[0, 0, 0]",2335,True
"[2, 7, 4]",,,,undefined,6536,"[1, 0, 1]",True,3,1,0,"[0, 1]","[3, 0, 0]",4 + 1 = ?,response,1,"[5, 4, 1]",3,0 + 1 = ?,"[0, 1]",There is a tick.,0,1,exh-subclausal,2,12.411183333333334,False,,,"[4, 0, 0]",2328,False
"[8, 4, 6]",,,,undefined,9303,"[9, 1, 8]",False,3,1,0,"[0, 1]","[0, 0, 0]",7 + 2 = ?,filler,0,"[9, 7, 2]",3,1 + 8 = ?,"[1, 0]",There are four notes.,1,0,exh-subclausal,1,12.411183333333334,False,,,"[5, 0, 0]",5415,False
"[9, 1, 6]",,,,undefined,8183,"[9, 4, 5]",True,3,1,1,"[0, 1]","[0, 0, 0]",3 + 3 = ?,filler,1,"[6, 3, 3]",3,4 + 5 = ?,"[0, 1]",Some of the symbols are triangles.,0,1,exh-subclausal,0,12.411183333333334,False,,,"[3, 0, 0]",3510,False
"[4, 2, 0]",,,,undefined,8591,"[0, 3, 1]",True,1,1,0,"[0, 1]","[0, 0, 0]",There are four ticks.,response,0,"[2, 9, 0]",3,There are four diamonds.,"[1, 0]",There are four hearts.,0,1,exh-subclausal,1,12.411183333333334,True,,,"[0, 0, 0]",3094,True
"[6, 0, 8]",,,,undefined,9369,"[9, 4, 7]",True,0,1,1,"[0, 1]","[0, 0, 0]",There is a triangle.,filler,0,"[9, 7, 2]",3,There is a triangle.,"[1, 0]",There is a star.,0,1,exh-subclausal,2,12.411183333333334,True,,,"[0, 0, 0]",2040,True
"[1, 5, 3]",,,,undefined,9751,"[0, 6, 9]",True,2,1,1,"[0, 1]","[0, 0, 0]",Some but not all of the symbols are notes.,filler,0,"[8, 5, 4]",3,Some but not all of the symbols are diamonds.,"[1, 0]",Some of the symbols are clubs.,1,1,exh-subclausal,0,12.411183333333334,False,,,"[0, 0, 0]",2830,False
"[5, 9, 2]",,,,undefined,5920,"[5, 5, 0]",True,3,0,1,"[1, 0]","[8, 0, 0]",5 + 0 = ?,filler,0,"[5, 5, 0]",3,5 + 0 = ?,"[1, 0]",There are four squares.,1,0,exh-subclausal,1,12.411183333333334,False,,,"[2, 0, 0]",2183,False
"[0, 6, 9]",,,,undefined,11128,"[2, 8, 3]",False,0,0,1,"[1, 0]","[0, 0, 0]",Some of the symbols are stars.,filler,1,"[6, 4, 9]",3,Some of the symbols are ticks.,"[0, 1]",Some of the symbols are diamonds.,1,1,exh-subclausal,0,12.411183333333334,False,,,"[0, 0, 0]",3535,True
"[9, 0, 1]",,,,undefined,14671,"[7, 5, 2]",True,3,0,0,"[1, 0]","[6, 0, 0]",7 + 4 = ?,response,1,"[11, 7, 4]",3,5 + 2 = ?,"[0, 1]",There are four triangles.,1,0,exh-subclausal,1,12.411183333333334,True,,,"[6, 0, 0]",2351,True
"[2, 3, 0]",,,,undefined,10592,"[4, 5, 6]",True,0,0,0,"[1, 0]","[0, 0, 0]",Some of the symbols are hearts.,response,0,"[4, 1, 0]",3,Some of the symbols are hearts.,"[1, 0]",Some of the symbols are ticks.,0,0,exh-subclausal,0,12.411183333333334,True,,,"[0, 0, 0]",2159,True
"[9, 1, 4]",,,,undefined,7634,"[0, 9, 3]",True,1,1,0,"[0, 1]","[0, 0, 0]",There is a triangle.,response,1,"[9, 7, 0]",3,There is a diamond.,"[0, 1]",There is a triangle.,1,1,exh-subclausal,2,12.411183333333334,True,,,"[0, 0, 0]",1897,True
"[0, 1, 8]",,,,undefined,5261,"[7, 2, 5]",True,1,1,0,"[0, 1]","[0, 0, 0]",There are four triangles.,filler,1,"[9, 4, 3]",3,There are four circles.,"[0, 1]",There are four diamonds.,1,1,exh-subclausal,1,12.411183333333334,True,,,"[0, 0, 0]",2191,True
"[0, 7, 8]",,,,undefined,11304,"[2, 9, 5]",True,0,0,1,"[1, 0]","[0, 0, 0]",Some of the symbols are hearts.,filler,0,"[4, 2, 5]",3,Some of the symbols are ticks.,"[1, 0]",Some of the symbols are diamonds.,0,0,exh-subclausal,0,12.411183333333334,True,,,"[0, 0, 0]",2247,True
"[0, 2, 4]",,,,undefined,10448,"[1, 8, 0]",True,2,1,0,"[0, 1]","[0, 0, 0]",Some but not all of the symbols are ticks.,response,0,"[2, 9, 7]",3,Some but not all of the symbols are clubs.,"[1, 0]",Some of the symbols are diamonds.,0,1,exh-subclausal,0,12.411183333333334,True,,,"[0, 0, 0]",2879,True
"[9, 0, 6]",,,,undefined,5879,"[7, 0, 3]",True,1,0,1,"[1, 0]","[0, 0, 0]",There are four notes.,filler,1,"[8, 3, 5]",3,There are four circles.,"[0, 1]",There are four triangles.,1,0,exh-subclausal,1,12.411183333333334,True,,,"[0, 0, 0]",2343,True
"[2, 6, 5]",,,,undefined,5536,"[1, 7, 8]",True,0,0,0,"[1, 0]","[0, 0, 0]",There are four squares.,response,0,"[5, 0, 6]",3,There are four clubs.,"[1, 0]",There are four ticks.,0,0,exh-subclausal,1,12.411183333333334,True,,,"[0, 0, 0]",1551,True
"[6, 1, 5]",,,,undefined,4440,"[11, 2, 9]",True,3,1,0,"[0, 1]","[7, 0, 0]",7 + 2 = ?,response,1,"[9, 7, 2]",3,2 + 9 = ?,"[0, 1]",There is a star.,0,1,exh-subclausal,2,12.411183333333334,False,,,"[10, 0, 0]",1790,False
"[6, 2, 4]",,,,undefined,7216,"[7, 5, 3]",True,2,1,0,"[0, 1]","[0, 0, 0]",There are four but no more than four diamonds.,response,0,"[0, 5, 7]",3,There are four but no more than four circles.,"[1, 0]",There are four stars.,1,1,exh-subclausal,1,12.411183333333334,False,,,"[0, 0, 0]",1855,False
"[9, 3, 0]",,,,undefined,7880,"[2, 6, 5]",True,2,0,0,"[1, 0]","[0, 0, 0]",There are four but no more than four triangles.,response,0,"[9, 2, 1]",3,There are four but no more than four ticks.,"[1, 0]",There are four triangles.,0,0,exh-subclausal,1,12.411183333333334,True,,,"[0, 0, 0]",1736,True
"[7, 1, 2]",,,,undefined,10031,"[6, 9, 2]",True,2,0,1,"[1, 0]","[0, 0, 0]",Some but not all of the symbols are circles.,filler,1,"[7, 4, 8]",3,Some but not all of the symbols are stars.,"[0, 1]",Some of the symbols are circles.,1,0,exh-subclausal,0,12.411183333333334,True,,,"[0, 0, 0]",3695,True
"[3, 6, 2]",,,,undefined,7008,"[1, 1, 0]",True,3,1,1,"[0, 1]","[0, 0, 0]",5 + 7 = ?,filler,1,"[12, 5, 7]",3,1 + 0 = ?,"[0, 1]",There is a spade.,0,1,exh-subclausal,2,12.411183333333334,False,,,"[0, 0, 0]",3528,False
"[6, 0, 2]",,,,undefined,6504,"[8, 9, 6]",True,2,1,1,"[0, 1]","[0, 0, 0]",There are four but no more than four clubs.,filler,0,"[1, 6, 0]",3,There are four but no more than four notes.,"[1, 0]",There are four stars.,0,1,exh-subclausal,1,12.411183333333334,True,,,"[0, 0, 0]",1944,True
"[9, 8, 1]",,,,undefined,9295,"[7, 0, 5]",True,2,0,1,"[1, 0]","[0, 0, 0]",There is a tick but nothing else.,filler,0,"[2, 8, 4]",3,There is a circle but nothing else.,"[1, 0]",There is a triangle.,1,0,exh-subclausal,2,12.411183333333334,False,,,"[0, 0, 0]",2871,False
"[1, 5, 7]",,,,undefined,6224,"[4, 2, 5]",True,1,0,1,"[1, 0]","[0, 0, 0]",There is a tick.,filler,1,"[2, 6, 3]",3,There is a heart.,"[0, 1]",There is a club.,1,0,exh-subclausal,2,12.411183333333334,True,,,"[0, 0, 0]",1926,True
"[0, 9, 6]",,,,undefined,6160,"[6, 4, 3]",True,2,1,0,"[0, 1]","[0, 0, 0]",There is a heart but nothing else.,response,1,"[4, 1, 7]",3,There is a star but nothing else.,"[0, 1]",There is a diamond.,1,1,exh-subclausal,2,12.411183333333334,True,,,"[0, 0, 0]",1527,True
"[6, 5, 2]",,,,undefined,7744,"[6, 9, 1]",True,0,1,1,"[0, 1]","[0, 0, 0]",Some of the symbols are notes.,filler,0,"[8, 6, 1]",3,Some of the symbols are stars.,"[1, 0]",Some of the symbols are stars.,0,1,exh-subclausal,0,12.411183333333334,True,,,"[0, 0, 0]",2375,True
"[7, 5, 0]",,,,undefined,5832,"[7, 4, 3]",True,3,1,1,"[0, 1]","[2, 0, 0]",1 + 3 = ?,filler,0,"[4, 1, 3]",3,4 + 3 = ?,"[1, 0]",There is a circle.,1,1,exh-subclausal,2,12.411183333333334,False,,,"[4, 0, 0]",2840,False
"[7, 9, 8]",,,,undefined,5591,"[6, 4, 2]",False,3,0,0,"[1, 0]","[2, 0, 0]",2 + 1 = ?,response,1,"[3, 2, 1]",3,4 + 2 = ?,"[0, 1]",There are four circles.,0,1,exh-subclausal,1,12.411183333333334,False,,,"[4, 0, 0]",2638,False
"[0, 3, 1]",,,,undefined,9000,"[1, 6, 5]",True,2,1,1,"[0, 1]","[0, 0, 0]",There are four but no more than four notes.,filler,1,"[8, 2, 9]",3,There are four but no more than four clubs.,"[0, 1]",There are four diamonds.,1,1,exh-subclausal,1,12.411183333333334,True,,,"[0, 0, 0]",2704,True
"[1, 5, 9]",,,,undefined,5664,"[8, 1, 7]",True,3,1,1,"[0, 1]","[9, 0, 0]",5 + 5 = ?,filler,0,"[10, 5, 5]",3,1 + 7 = ?,"[1, 0]",There are four clubs.,0,1,exh-subclausal,1,12.411183333333334,True,,,"[5, 0, 0]",2208,True
"[7, 8, 9]",,,,undefined,6968,"[6, 2, 9]",True,0,0,0,"[1, 0]","[0, 0, 0]",Some of the symbols are clubs.,response,1,"[1, 3, 4]",3,Some of the symbols are stars.,"[0, 1]",Some of the symbols are circles.,1,0,exh-subclausal,0,12.411183333333334,True,,,"[0, 0, 0]",1801,True
"[6, 5, 0]",,,,undefined,7799,"[5, 6, 2]",True,2,0,1,"[1, 0]","[0, 0, 0]",There is a triangle but nothing else.,filler,0,"[9, 2, 5]",3,There is a square but nothing else.,"[1, 0]",There is a star.,0,0,exh-subclausal,2,12.411183333333334,True,,,"[0, 0, 0]",1711,True
"[9, 0, 4]",,,,undefined,6752,"[15, 7, 8]",True,3,1,0,"[0, 1]","[8, 0, 0]",0 + 4 = ?,response,0,"[4, 0, 4]",3,7 + 8 = ?,"[1, 0]",There are four triangles.,0,1,exh-subclausal,1,12.411183333333334,True,,,"[9, 0, 0]",3031,True
"[2, 7, 6]",,,,undefined,6495,"[0, 3, 1]",True,0,1,1,"[0, 1]","[0, 0, 0]",Some of the symbols are triangles.,filler,0,"[9, 5, 4]",3,Some of the symbols are diamonds.,"[1, 0]",Some of the symbols are ticks.,0,1,exh-subclausal,0,12.411183333333334,True,,,"[0, 0, 0]",2229,True
"[0, 5, 7]",,,,undefined,6544,"[7, 0, 8]",True,1,1,0,"[0, 1]","[0, 0, 0]",There are four circles.,response,1,"[7, 5, 8]",3,There are four circles.,"[0, 1]",There are four diamonds.,1,1,exh-subclausal,1,12.411183333333334,True,,,"[0, 0, 0]",1815,True
"[8, 0, 4]",,,,undefined,6711,"[12, 6, 6]",True,3,0,1,"[1, 0]","[0, 0, 0]",6 + 0 = ?,filler,0,"[6, 6, 0]",3,6 + 6 = ?,"[1, 0]",There is a note.,1,0,exh-subclausal,2,12.411183333333334,False,,,"[4, 0, 0]",3039,False
"[1, 8, 5]",,,,undefined,4488,"[3, 5, 0]",True,0,0,0,"[1, 0]","[0, 0, 0]",There are four ticks.,response,1,"[2, 7, 1]",3,There are four spades.,"[0, 1]",There are four clubs.,1,0,exh-subclausal,1,12.411183333333334,True,,,"[0, 0, 0]",1343,True
"[6, 9, 1]",,,,undefined,5233,"[0, 1, 2]",True,0,0,0,"[1, 0]","[0, 0, 0]",There is a triangle.,response,1,"[9, 6, 0]",3,There is a diamond.,"[0, 1]",There is a star.,1,0,exh-subclausal,2,12.411183333333334,True,,,"[0, 0, 0]",1703,True
"[4, 6, 7]",,,,undefined,4520,"[15, 8, 7]",False,3,1,0,"[0, 1]","[1, 0, 0]",6 + 6 = ?,response,1,"[12, 6, 6]",3,8 + 7 = ?,"[0, 1]",Some of the symbols are hearts.,1,0,exh-subclausal,0,12.411183333333334,False,,,"[2, 0, 0]",1927,True
"[9, 7, 3]",,,,undefined,4904,"[8, 3, 1]",True,2,0,0,"[1, 0]","[0, 0, 0]",There is a triangle but nothing else.,response,0,"[9, 8, 6]",3,There is a note but nothing else.,"[1, 0]",There is a triangle.,0,0,exh-subclausal,2,12.411183333333334,True,,,"[0, 0, 0]",1327,True
"[3, 8, 4]",,,,undefined,3904,"[9, 2, 7]",True,1,1,0,"[0, 1]","[0, 0, 0]",There is a note.,filler,1,"[8, 0, 7]",3,There is a triangle.,"[0, 1]",There is a spade.,1,1,exh-subclausal,2,12.411183333333334,True,,,"[0, 0, 0]",1263,True
"[2, 8, 1]",,,,undefined,6440,"[7, 9, 6]",True,2,1,1,"[0, 1]","[0, 0, 0]",There is a spade but nothing else.,filler,1,"[3, 7, 4]",3,There is a circle but nothing else.,"[0, 1]",There is a tick.,1,1,exh-subclausal,2,12.411183333333334,True,,,"[0, 0, 0]",1808,True
"[3, 7, 2]",,,,undefined,4264,"[7, 4, 3]",False,3,0,0,"[1, 0]","[5, 0, 0]",8 + 4 = ?,response,1,"[12, 8, 4]",3,4 + 3 = ?,"[0, 1]",Some of the symbols are spades.,0,1,exh-subclausal,0,12.411183333333334,False,,,"[9, 0, 0]",1536,False
"[3, 8, 0]",,,,undefined,5287,"[8, 8, 0]",False,3,0,1,"[1, 0]","[9, 0, 0]",3 + 0 = ?,filler,1,"[3, 3, 0]",3,8 + 0 = ?,"[0, 1]",There are four spades.,0,1,exh-subclausal,1,12.411183333333334,False,,,"[8, 0, 0]",1509,False
"[8, 4, 5]",,,,undefined,11832,"[5, 3, 9]",True,2,0,1,"[1, 0]","[0, 0, 0]",Some but not all of the symbols are stars.,filler,1,"[6, 8, 7]",3,Some but not all of the symbols are squares.,"[0, 1]",Some of the symbols are notes.,1,0,exh-subclausal,0,12.411183333333334,True,,,"[0, 0, 0]",3175,True
"[3, 2, 8]",,,,undefined,5239,"[0, 5, 2]",True,0,0,0,"[1, 0]","[0, 0, 0]",There are four notes.,response,1,"[8, 1, 4]",3,There are four diamonds.,"[0, 1]",There are four spades.,1,0,exh-subclausal,1,12.411183333333334,True,,,"[0, 0, 0]",1574,True
"[5, 6, 8]",,,,undefined,7619,"[7, 3, 0]",True,1,1,1,"[0, 1]","[0, 0, 0]",Some of the symbols are spades.,filler,1,"[3, 1, 7]",3,Some of the symbols are circles.,"[0, 1]",Some of the symbols are squares.,1,1,exh-subclausal,0,12.411183333333334,True,,,"[0, 0, 0]",1881,True
"[6, 3, 1]",,,,undefined,8804,"[1, 0, 9]",True,0,1,1,"[0, 1]","[0, 0, 0]",There is a diamond.,filler,0,"[0, 6, 4]",3,There is a club.,"[1, 0]",There is a star.,0,1,exh-subclausal,2,12.411183333333334,True,,,"[0, 0, 0]",2071,True
"[1, 5, 6]",,,,undefined,4335,"[12, 3, 9]",True,3,0,0,"[1, 0]","[6, 0, 0]",0 + 0 = ?,response,0,"[0, 0, 0]",3,3 + 9 = ?,"[1, 0]",There is a club.,1,0,exh-subclausal,2,12.411183333333334,False,,,"[7, 0, 0]",1367,False
"[0, 8, 7]",,,,undefined,3969,"[8, 8, 0]",False,3,0,0,"[1, 0]","[9, 0, 0]",3 + 7 = ?,response,0,"[10, 3, 7]",3,8 + 0 = ?,"[1, 0]",Some of the symbols are diamonds.,0,1,exh-subclausal,0,12.411183333333334,False,,,"[8, 0, 0]",1376,True
"[2, 4, 8]",,,,undefined,4591,"[2, 4, 5]",True,1,0,1,"[1, 0]","[0, 0, 0]",There are four diamonds.,filler,1,"[0, 1, 6]",3,There are four ticks.,"[0, 1]",There are four ticks.,1,0,exh-subclausal,1,12.411183333333334,True,,,"[0, 0, 0]",1519,True
"[3, 6, 9]",,,,undefined,4008,"[2, 1, 3]",True,0,0,0,"[1, 0]","[0, 0, 0]",There is a triangle.,response,1,"[9, 1, 2]",3,There is a tick.,"[0, 1]",There is a spade.,1,0,exh-subclausal,2,12.411183333333334,True,,,"[0, 0, 0]",1287,True
"[7, 4, 0]",,,,undefined,5951,"[8, 1, 2]",True,2,1,0,"[0, 1]","[0, 0, 0]",There is a note but nothing else.,response,1,"[8, 4, 0]",3,There is a note but nothing else.,"[0, 1]",There is a circle.,1,1,exh-subclausal,2,12.411183333333334,True,,,"[0, 0, 0]",2022,True
"[4, 9, 1]",,,,undefined,7840,"[4, 1, 8]",False,1,0,0,"[1, 0]","[0, 0, 0]",Some of the symbols are hearts.,response,1,"[4, 7, 5]",3,Some of the symbols are hearts.,"[0, 1]",Some of the symbols are hearts.,0,1,exh-subclausal,0,12.411183333333334,False,,,"[0, 0, 0]",2390,False
"[6, 1, 8]",,,,undefined,5656,"[5, 8, 0]",True,0,0,0,"[1, 0]","[0, 0, 0]",Some of the symbols are diamonds.,response,1,"[0, 6, 1]",3,Some of the symbols are squares.,"[0, 1]",Some of the symbols are stars.,1,0,exh-subclausal,0,12.411183333333334,True,,,"[0, 0, 0]",2007,True
"[1, 8, 7]",,,,undefined,5980,"[2, 4, 6]",True,2,0,1,"[1, 0]","[0, 0, 0]",Some but not all of the symbols are notes.,filler,0,"[8, 5, 1]",3,Some but not all of the symbols are ticks.,"[1, 0]",Some of the symbols are clubs.,0,0,exh-subclausal,0,12.411183333333334,True,,,"[0, 0, 0]",1795,True
"[2, 9, 7]",,,,undefined,6829,"[2, 5, 1]",True,2,1,0,"[0, 1]","[0, 0, 0]",Some but not all of the symbols are notes.,response,0,"[8, 4, 2]",3,Some but not all of the symbols are ticks.,"[1, 0]",Some of the symbols are ticks.,0,1,exh-subclausal,0,12.411183333333334,True,,,"[0, 0, 0]",1471,True
"[0, 8, 3]",,,,undefined,6145,"[0, 1, 3]",True,2,1,0,"[0, 1]","[0, 0, 0]",There are four but no more than four hearts.,response,0,"[4, 9, 8]",3,There are four but no more than four diamonds.,"[1, 0]",There are four diamonds.,1,1,exh-subclausal,1,12.411183333333334,False,,,"[0, 0, 0]",1607,False
"[2, 1, 3]",,,,undefined,4281,"[8, 0, 3]",True,1,0,0,"[1, 0]","[0, 0, 0]",There are four triangles.,response,0,"[9, 8, 4]",3,There are four notes.,"[1, 0]",There are four ticks.,0,0,exh-subclausal,1,12.411183333333334,True,,,"[0, 0, 0]",1552,True
"[6, 1, 4]",,,,undefined,5591,"[6, 4, 9]",True,1,0,0,"[1, 0]","[0, 0, 0]",There is a circle.,response,0,"[7, 1, 6]",3,There is a star.,"[1, 0]",There is a star.,1,0,exh-subclausal,2,12.411183333333334,False,,,"[0, 0, 0]",1280,False
"[8, 1, 4]",,,,undefined,3871,"[4, 8, 9]",True,1,1,0,"[0, 1]","[0, 0, 0]",There are four clubs.,response,1,"[1, 7, 2]",3,There are four hearts.,"[0, 1]",There are four notes.,1,1,exh-subclausal,1,12.411183333333334,True,,,"[0, 0, 0]",1230,True
"[8, 5, 3]",,,,undefined,4000,"[14, 7, 7]",True,3,0,0,"[1, 0]","[8, 0, 0]",9 + 9 = ?,filler,0,"[18, 9, 9]",3,7 + 7 = ?,"[1, 0]",Some of the symbols are notes.,1,0,exh-subclausal,0,12.411183333333334,False,,,"[0, 0, 0]",1480,False
"[7, 0, 3]",,,,undefined,7274,"[3, 8, 6]",True,2,1,0,"[0, 1]","[0, 0, 0]",Some but not all of the symbols are clubs.,response,0,"[1, 2, 9]",3,Some but not all of the symbols are spades.,"[1, 0]",Some of the symbols are circles.,0,1,exh-subclausal,0,12.411183333333334,True,,,"[0, 0, 0]",1642,True
"[6, 2, 5]",,,,undefined,7734,"[3, 8, 4]",True,2,0,1,"[1, 0]","[0, 0, 0]",There are four but no more than four hearts.,filler,1,"[4, 7, 3]",3,There are four but no more than four spades.,"[0, 1]",There are four stars.,1,0,exh-subclausal,1,12.411183333333334,True,,,"[0, 0, 0]",2024,True
"[3, 5, 1]",,,,undefined,5619,"[7, 3, 8]",True,2,0,0,"[1, 0]","[0, 0, 0]",There are four but no more than four squares.,filler,0,"[5, 9, 3]",3,There are four but no more than four circles.,"[1, 0]",There are four spades.,0,0,exh-subclausal,1,12.411183333333334,True,,,"[0, 0, 0]",2355,True
"[5, 9, 3]",,,,undefined,9083,"[0, 9, 3]",False,0,0,0,"[1, 0]","[0, 0, 0]",Some of the symbols are spades.,response,0,"[3, 4, 5]",3,Some of the symbols are diamonds.,"[1, 0]",Some of the symbols are squares.,0,1,exh-subclausal,0,12.411183333333334,False,,,"[0, 0, 0]",2454,True
"[9, 5, 7]",,,,undefined,3952,"[10, 5, 5]",False,3,1,0,"[0, 1]","[7, 0, 0]",8 + 0 = ?,response,0,"[8, 8, 0]",3,5 + 5 = ?,"[1, 0]",There is a triangle.,1,0,exh-subclausal,2,12.411183333333334,False,,,"[9, 0, 0]",1311,False
"[0, 3, 4]",,,,undefined,4032,"[10, 7, 3]",True,3,1,0,"[0, 1]","[3, 0, 0]",6 + 2 = ?,response,1,"[8, 6, 2]",3,7 + 3 = ?,"[0, 1]",There are four diamonds.,0,1,exh-subclausal,1,12.411183333333334,False,,,"[9, 0, 0]",1432,False
"[7, 6, 5]",,,,undefined,5343,"[5, 1, 9]",True,1,0,1,"[1, 0]","[0, 0, 0]",There is a circle.,filler,1,"[7, 9, 3]",3,There is a square.,"[0, 1]",There is a circle.,1,0,exh-subclausal,2,12.411183333333334,True,,,"[0, 0, 0]",2127,True
"[6, 0, 2]",,,,undefined,3858,"[1, 1, 0]",False,3,0,0,"[1, 0]","[0, 0, 0]",3 + 3 = ?,filler,1,"[6, 3, 3]",3,1 + 0 = ?,"[0, 1]",Some of the symbols are stars.,0,1,exh-subclausal,0,12.411183333333334,False,,,"[2, 0, 0]",1311,False
"[8, 2, 7]",,,,undefined,5088,"[3, 4, 8]",True,0,1,0,"[0, 1]","[0, 0, 0]",There is a spade.,response,0,"[3, 5, 9]",3,There is a spade.,"[1, 0]",There is a note.,1,1,exh-subclausal,2,12.411183333333334,False,,,"[0, 0, 0]",1527,False
"[6, 5, 9]",,,,undefined,4991,"[11, 9, 2]",False,3,1,1,"[0, 1]","[8, 0, 0]",3 + 9 = ?,filler,0,"[12, 3, 9]",3,9 + 2 = ?,"[1, 0]",Some of the symbols are stars.,1,0,exh-subclausal,0,12.411183333333334,False,,,"[0, 0, 0]",2143,False
"[0, 4, 2]",,,,undefined,5160,"[2, 3, 5]",False,1,0,1,"[1, 0]","[0, 0, 0]",Some of the symbols are notes.,filler,0,"[8, 4, 5]",3,Some of the symbols are ticks.,"[1, 0]",Some of the symbols are diamonds.,1,1,exh-subclausal,0,12.411183333333334,False,,,"[0, 0, 0]",1575,False
"[6, 4, 3]",,,,undefined,6704,"[1, 8, 4]",True,2,1,0,"[0, 1]","[0, 0, 0]",There are four but no more than four ticks.,response,0,"[2, 7, 3]",3,There are four but no more than four clubs.,"[1, 0]",There are four stars.,0,1,exh-subclausal,1,12.411183333333334,True,,,"[0, 0, 0]",1551,True
"[5, 7, 9]",,,,undefined,4448,"[8, 7, 1]",True,3,0,0,"[1, 0]","[2, 0, 0]",4 + 3 = ?,response,0,"[7, 4, 3]",3,7 + 1 = ?,"[1, 0]",Some of the symbols are squares.,1,0,exh-subclausal,0,12.411183333333334,False,,,"[3, 0, 0]",1607,False
"[0, 8, 4]",,,,undefined,11943,"[0, 9, 6]",True,0,0,1,"[1, 0]","[0, 0, 0]",There are four circles.,filler,1,"[7, 9, 1]",3,There are four diamonds.,"[0, 1]",There are four diamonds.,1,0,exh-subclausal,1,12.411183333333334,True,,,"[0, 0, 0]",6719,True
"[4, 5, 1]",,,,undefined,22222,"[9, 5, 8]",True,0,0,1,"[1, 0]","[0, 0, 0]",There is a triangle.,filler,0,"[9, 4, 5]",3,There is a triangle.,"[1, 0]",There is a heart.,0,0,exh-subclausal,2,12.411183333333334,True,,,"[0, 0, 0]",3390,True
"[3, 4, 0]",,,,undefined,6496,"[4, 6, 8]",True,1,1,0,"[0, 1]","[0, 0, 0]",Some of the symbols are notes.,response,0,"[8, 0, 9]",3,Some of the symbols are hearts.,"[1, 0]",Some of the symbols are spades.,0,1,exh-subclausal,0,12.411183333333334,True,,,"[0, 0, 0]",1959,True
"[6, 2, 5]",,,,undefined,11104,"[5, 8, 1]",True,2,0,0,"[1, 0]","[0, 0, 0]",Some but not all of the symbols are circles.,response,0,"[7, 6, 9]",3,Some but not all of the symbols are squares.,"[1, 0]",Some of the symbols are stars.,0,0,exh-subclausal,0,12.411183333333334,True,,,"[0, 0, 0]",4175,True
"[5, 3, 4]",,,,undefined,6551,"[9, 3, 0]",True,0,1,1,"[0, 1]","[0, 0, 0]",There are four notes.,filler,1,"[8, 3, 1]",3,There are four triangles.,"[0, 1]",There are four squares.,1,1,exh-subclausal,1,12.411183333333334,True,,,"[0, 0, 0]",2198,True
"[9, 0, 6]",,,,undefined,11768,"[3, 8, 7]",False,1,1,0,"[0, 1]","[0, 0, 0]",Some of the symbols are diamonds.,response,1,"[0, 4, 1]",3,Some of the symbols are spades.,"[0, 1]",Some of the symbols are triangles.,0,0,exh-subclausal,0,12.411183333333334,False,,,"[0, 0, 0]",5183,False
"[6, 5, 3]",,,,undefined,6291,"[6, 2, 8]",True,2,1,0,"[0, 1]","[0, 0, 0]",There is a triangle but nothing else.,response,1,"[9, 2, 1]",3,There is a star but nothing else.,"[0, 1]",There is a star.,1,1,exh-subclausal,2,12.411183333333334,True,,,"[0, 0, 0]",1576,True
"[6, 4, 2]",,,,undefined,4798,"[2, 4, 3]",True,0,1,1,"[0, 1]","[0, 0, 0]",There are four triangles.,filler,1,"[9, 6, 3]",3,There are four ticks.,"[0, 1]",There are four stars.,1,1,exh-subclausal,1,12.411183333333334,True,,,"[0, 0, 0]",1744,True
"[5, 8, 7]",,,,undefined,5944,"[7, 0, 1]",True,2,0,1,"[1, 0]","[0, 0, 0]",There is a diamond but nothing else.,filler,1,"[0, 1, 6]",3,There is a circle but nothing else.,"[0, 1]",There is a square.,1,0,exh-subclausal,2,12.411183333333334,True,,,"[0, 0, 0]",2600,True
"[3, 0, 8]",,,,undefined,4799,"[3, 6, 7]",True,0,0,1,"[1, 0]","[0, 0, 0]",There are four diamonds.,filler,0,"[0, 2, 6]",3,There are four spades.,"[1, 0]",There are four spades.,0,0,exh-subclausal,1,12.411183333333334,True,,,"[0, 0, 0]",1583,True
"[4, 6, 7]",,,,undefined,7009,"[4, 5, 6]",False,1,1,1,"[0, 1]","[0, 0, 0]",Some of the symbols are stars.,filler,1,"[6, 8, 9]",3,Some of the symbols are hearts.,"[0, 1]",Some of the symbols are hearts.,0,0,exh-subclausal,0,12.411183333333334,False,,,"[0, 0, 0]",2215,False
"[7, 3, 6]",,,,undefined,6006,"[9, 6, 3]",False,3,0,1,"[1, 0]","[9, 0, 0]",9 + 0 = ?,filler,0,"[9, 9, 0]",3,6 + 3 = ?,"[1, 0]",There is a circle.,1,1,exh-subclausal,2,12.411183333333334,False,,,"[2, 0, 0]",2238,False
"[9, 3, 4]",,,,undefined,7096,"[1, 9, 8]",False,1,0,0,"[1, 0]","[0, 0, 0]",There is a star.,response,1,"[6, 0, 4]",3,There is a club.,"[0, 1]",There is a triangle.,1,1,exh-subclausal,2,12.411183333333334,False,,,"[0, 0, 0]",1415,True
"[8, 4, 0]",,,,undefined,4488,"[4, 9, 8]",True,1,1,0,"[0, 1]","[0, 0, 0]",There are four circles.,filler,1,"[7, 1, 2]",3,There are four hearts.,"[0, 1]",There are four notes.,1,1,exh-subclausal,1,12.411183333333334,True,,,"[0, 0, 0]",1319,True
"[2, 9, 0]",,,,undefined,4847,"[7, 1, 4]",True,0,1,0,"[0, 1]","[0, 0, 0]",There is a circle.,response,1,"[7, 4, 3]",3,There is a circle.,"[0, 1]",There is a tick.,1,1,exh-subclausal,2,12.411183333333334,True,,,"[0, 0, 0]",1391,True
"[7, 5, 9]",,,,undefined,4577,"[7, 0, 5]",True,1,1,1,"[0, 1]","[0, 0, 0]",There is a diamond.,filler,1,"[0, 3, 1]",3,There is a circle.,"[0, 1]",There is a circle.,1,1,exh-subclausal,2,12.411183333333334,True,,,"[0, 0, 0]",1663,True
"[0, 6, 2]",,,,undefined,6160,"[4, 3, 9]",False,1,1,1,"[0, 1]","[0, 0, 0]",Some of the symbols are triangles.,filler,0,"[9, 4, 2]",3,Some of the symbols are hearts.,"[1, 0]",Some of the symbols are diamonds.,1,0,exh-subclausal,0,12.411183333333334,False,,,"[0, 0, 0]",1712,False
"[6, 8, 0]",,,,undefined,5477,"[9, 1, 2]",True,0,0,0,"[1, 0]","[0, 0, 0]",There are four diamonds.,response,0,"[0, 5, 2]",3,There are four triangles.,"[1, 0]",There are four stars.,0,0,exh-subclausal,1,12.411183333333334,True,,,"[0, 0, 0]",2685,True
"[0, 6, 2]",,,,undefined,5426,"[8, 2, 4]",False,1,1,0,"[0, 1]","[0, 0, 0]",Some of the symbols are notes.,response,0,"[8, 7, 9]",3,Some of the symbols are notes.,"[1, 0]",Some of the symbols are diamonds.,1,0,exh-subclausal,0,12.411183333333334,False,,,"[0, 0, 0]",1359,False
"[4, 7, 1]",,,,undefined,6031,"[3, 4, 7]",True,1,0,0,"[1, 0]","[0, 0, 0]",There is a note.,response,1,"[8, 9, 4]",3,There is a spade.,"[0, 1]",There is a heart.,1,0,exh-subclausal,2,12.411183333333334,True,,,"[0, 0, 0]",1519,True
,bot_check,"[0, 'Sarah']",Sarah,undefined,,,,,,,,,,,,,4,,,,,,,,15.03385,,,1,,,
"[0, 5, 6]",,,,undefined,27631,"[1, 9, 6]",True,0,1,0,"[0, 1]","[0, 0, 0]",Some of the symbols are hearts.,response,1,"[4, 3, 6]",4,Some of the symbols are clubs.,"[0, 1]",Some of the symbols are diamonds.,1,1,exh-subclausal,0,15.03385,True,,,"[0, 0, 0]",10501,True
"[3, 1, 0]",,,,undefined,24457,"[3, 1, 2]",True,1,1,1,"[0, 1]","[0, 0, 0]",There are four stars.,filler,0,"[6, 7, 1]",4,There are four spades.,"[1, 0]",There are four spades.,0,1,exh-subclausal,1,15.03385,True,,,"[0, 0, 0]",10845,True
"[4, 0, 9]",,,,undefined,14156,"[17, 8, 9]",True,3,1,0,"[0, 1]","[4, 0, 0]",8 + 6 = ?,response,0,"[14, 8, 6]",4,8 + 9 = ?,"[1, 0]",There is a heart.,0,1,exh-subclausal,2,15.03385,True,,,"[5, 0, 0]",4108,True
"[6, 8, 2]",,,,undefined,6674,"[4, 2, 2]",True,3,0,0,"[1, 0]","[7, 0, 0]",9 + 4 = ?,response,0,"[13, 9, 4]",4,2 + 2 = ?,"[1, 0]",Some of the symbols are stars.,1,0,exh-subclausal,0,15.03385,False,,,"[6, 0, 0]",2291,False
"[5, 0, 2]",,,,undefined,8756,"[4, 6, 9]",True,2,1,1,"[0, 1]","[0, 0, 0]",There is a tick but nothing else.,filler,0,"[2, 5, 8]",4,There is a heart but nothing else.,"[1, 0]",There is a square.,0,1,exh-subclausal,2,15.03385,True,,,"[0, 0, 0]",3181,True
"[6, 5, 0]",,,,undefined,6696,"[7, 2, 4]",True,1,1,1,"[0, 1]","[0, 0, 0]",There are four squares.,response,1,"[5, 4, 3]",4,There are four circles.,"[0, 1]",There are four stars.,1,1,exh-subclausal,1,15.03385,True,,,"[0, 0, 0]",2931,True
"[6, 7, 8]",,,,undefined,8548,"[12, 4, 8]",True,3,1,1,"[0, 1]","[1, 0, 0]",8 + 0 = ?,filler,0,"[8, 8, 0]",4,4 + 8 = ?,"[1, 0]",There is a star.,0,1,exh-subclausal,2,15.03385,True,,,"[3, 0, 0]",3997,True
"[7, 1, 6]",,,,undefined,11014,"[9, 3, 0]",True,2,1,1,"[0, 1]","[0, 0, 0]",Some but not all of the symbols are squares.,filler,1,"[5, 7, 9]",4,Some but not all of the symbols are triangles.,"[0, 1]",Some of the symbols are circles.,1,1,exh-subclausal,0,15.03385,True,,,"[0, 0, 0]",3108,True
"[8, 3, 9]",,,,undefined,8804,"[2, 6, 3]",True,2,0,1,"[1, 0]","[0, 0, 0]",There are four but no more than four squares.,response,0,"[5, 2, 7]",4,There are four but no more than four ticks.,"[1, 0]",There are four notes.,0,0,exh-subclausal,1,15.03385,True,,,"[0, 0, 0]",3004,True
"[8, 3, 4]",,,,undefined,6889,"[2, 5, 6]",True,1,0,1,"[1, 0]","[0, 0, 0]",There are four spades.,filler,0,"[3, 5, 6]",4,There are four ticks.,"[1, 0]",There are four notes.,0,0,exh-subclausal,1,15.03385,True,,,"[0, 0, 0]",2523,True
"[8, 9, 7]",,,,undefined,7088,"[4, 6, 2]",True,1,1,1,"[0, 1]","[0, 0, 0]",Some of the symbols are circles.,response,1,"[7, 6, 5]",4,Some of the symbols are hearts.,"[0, 1]",Some of the symbols are notes.,1,1,exh-subclausal,0,15.03385,True,,,"[0, 0, 0]",2514,True
"[3, 4, 9]",,,,undefined,6256,"[7, 4, 3]",True,0,1,1,"[0, 1]","[0, 0, 0]",There are four notes.,filler,1,"[8, 6, 7]",4,There are four circles.,"[0, 1]",There are four spades.,1,1,exh-subclausal,1,15.03385,True,,,"[0, 0, 0]",2074,True
