image,primeOShuffle,btwncondition,audio,goodPTChoice,pOwrongAnswer,responseChoice,correctPTChoice,primeTShuffle,pTChoice,correctPChoices,Answer.condition,response_rt,pOChoice,Answer.time_in_minutes,pTSymbols,goodPOChoice,pOSentence,responseSentence,primeStrength,pTwrongAnswer,slide_number,correctPOChoice,trial_type,slide_type,response,primeType,pOSymbols,workerid,responseSymbols,block_rt,pTSentence
Margaret,,,,,,,,,,,undefined,,,5.9799,,,,,,,1,,,bot_check,"[0, 'Margaret']",,,0,,,
,"[1, 0]",exh-only,,0,"[0, 0, 0]",1,True,"[1, 0]",0,True,undefined,1040,0,5.9799,"[8, 4, 5]",0,There is a circle.,There is a heart.,0,"[0, 0, 0]",,True,filler,,,2,"[7, 6, 1]",0,"[4, 7, 6]",3893,There is a note.
,"[1, 0]",exh-only,,1,"[0, 0, 0]",1,True,"[0, 1]",1,True,undefined,1055,0,5.9799,"[1, 3, 5]",0,There are four ticks.,There are four triangles.,1,"[0, 0, 0]",,True,filler,,,1,"[2, 4, 1]",0,"[9, 4, 2]",3000,There are four clubs.
,"[1, 0]",exh-only,,0,"[0, 0, 0]",1,True,"[1, 0]",0,True,undefined,996,0,5.9799,"[4, 1, 7]",0,Some of the symbols are spades.,Some of the symbols are triangles.,1,"[0, 0, 0]",,True,response,,,0,"[3, 1, 2]",0,"[9, 5, 2]",3280,Some of the symbols are hearts.
,"[1, 0]",exh-only,,0,"[4, 0, 0]",1,False,"[1, 0]",1,False,undefined,1053,0,5.9799,"[12, 4, 8]",0,1 + 7 = ?,There are four stars.,3,"[2, 0, 0]",,True,filler,,,1,"[8, 1, 7]",0,"[6, 2, 8]",3264,4 + 8 = ?
,"[0, 1]",exh-only,,1,"[0, 0, 0]",0,True,"[0, 1]",1,True,undefined,788,1,5.9799,"[4, 5, 6]",1,There is a triangle.,There is a square.,0,"[0, 0, 0]",,True,response,,,2,"[9, 0, 4]",0,"[5, 1, 6]",2920,There is a heart.
,"[1, 0]",exh-only,,1,"[0, 0, 0]",0,True,"[0, 1]",1,False,undefined,888,1,5.9799,"[5, 1, 0]",0,There are four spades.,There are four notes.,0,"[0, 0, 0]",,False,response,,,1,"[3, 2, 0]",0,"[8, 9, 7]",2869,There are four squares.
,"[1, 0]",exh-only,,1,"[2, 0, 0]",1,True,"[0, 1]",1,True,undefined,1008,0,5.9799,"[11, 3, 8]",0,8 + 7 = ?,There are four ticks.,3,"[3, 0, 0]",,True,filler,,,1,"[15, 8, 7]",0,"[2, 1, 8]",3291,3 + 8 = ?
,"[0, 1]",exh-only,,0,"[0, 0, 0]",1,True,"[1, 0]",0,True,undefined,1546,1,5.9799,"[8, 5, 3]",1,There is a square.,There is a heart.,0,"[0, 0, 0]",,True,filler,,,2,"[5, 7, 9]",0,"[4, 7, 2]",3653,There is a note.
,"[0, 1]",exh-only,,0,"[0, 0, 0]",1,True,"[1, 0]",0,True,undefined,1077,1,5.9799,"[6, 8, 3]",1,Some of the symbols are squares.,Some of the symbols are clubs.,1,"[0, 0, 0]",,True,filler,,,0,"[5, 0, 4]",0,"[1, 7, 6]",3984,Some of the symbols are stars.
,"[1, 0]",exh-only,,0,"[0, 0, 0]",1,True,"[1, 0]",0,True,undefined,968,0,5.9799,"[1, 9, 3]",0,There are four circles.,There are four hearts.,1,"[0, 0, 0]",,True,filler,,,1,"[7, 8, 2]",0,"[4, 5, 7]",2595,There are four clubs.
,"[0, 1]",exh-only,,1,"[9, 0, 0]",1,False,"[0, 1]",0,False,undefined,982,1,5.9799,"[4, 0, 4]",1,3 + 4 = ?,Some of the symbols are circles.,3,"[3, 0, 0]",,True,filler,,,0,"[7, 3, 4]",0,"[7, 2, 1]",3906,0 + 4 = ?
,"[1, 0]",exh-only,,1,"[0, 0, 0]",0,True,"[0, 1]",1,True,undefined,819,0,5.9799,"[9, 7, 4]",0,There is a club.,There is a note.,1,"[0, 0, 0]",,True,response,,,2,"[1, 2, 4]",0,"[8, 0, 9]",3215,There is a triangle.
,"[0, 1]",exh-only,,0,"[0, 0, 0]",1,True,"[1, 0]",0,True,undefined,828,1,5.9799,"[7, 9, 0]",1,Some of the symbols are clubs.,Some of the symbols are triangles.,1,"[0, 0, 0]",,True,response,,,0,"[1, 0, 4]",0,"[9, 4, 6]",3260,Some of the symbols are circles.
,"[1, 0]",exh-only,,1,"[0, 0, 0]",1,True,"[0, 1]",1,True,undefined,962,0,5.9799,"[1, 2, 0]",0,There is a club.,There is a circle.,1,"[0, 0, 0]",,True,filler,,,2,"[1, 4, 7]",0,"[7, 5, 2]",2880,There is a club.
,"[1, 0]",exh-only,,1,"[0, 0, 0]",1,True,"[0, 1]",1,True,undefined,1061,0,5.9799,"[1, 6, 9]",0,There is only a tick.,There is a diamond.,2,"[0, 0, 0]",,True,filler,,,2,"[2, 4, 6]",0,"[0, 8, 5]",3154,There is only a club.
,"[0, 1]",exh-only,,0,"[7, 0, 0]",1,False,"[1, 0]",1,False,undefined,1493,0,5.9799,"[12, 5, 7]",1,9 + 3 = ?,There is a club.,3,"[0, 0, 0]",,False,filler,,,2,"[12, 9, 3]",0,"[1, 4, 9]",4289,5 + 7 = ?
,"[1, 0]",exh-only,,1,"[8, 0, 0]",0,True,"[0, 1]",1,True,undefined,1343,0,5.9799,"[10, 4, 6]",0,9 + 1 = ?,There is a square.,3,"[6, 0, 0]",,True,response,,,2,"[10, 9, 1]",0,"[5, 7, 9]",3702,4 + 6 = ?
,"[1, 0]",exh-only,,0,"[0, 0, 0]",1,True,"[1, 0]",0,True,undefined,866,0,5.9799,"[7, 2, 0]",0,There are only four hearts.,There are four ticks.,2,"[0, 0, 0]",,True,response,,,1,"[4, 2, 8]",0,"[2, 4, 7]",2692,There are only four circles.
,"[0, 1]",exh-only,,0,"[6, 0, 0]",1,False,"[1, 0]",1,False,undefined,925,0,5.9799,"[8, 3, 5]",1,3 + 9 = ?,There is a square.,3,"[0, 0, 0]",,False,filler,,,2,"[12, 3, 9]",0,"[5, 8, 3]",3152,3 + 5 = ?
,"[0, 1]",exh-only,,0,"[0, 0, 0]",0,True,"[1, 0]",0,True,undefined,1408,1,5.9799,"[0, 8, 1]",1,Only some of the symbols are notes.,Some of the symbols are diamonds.,2,"[0, 0, 0]",,True,response,,,0,"[8, 0, 6]",0,"[0, 8, 6]",3743,Only some of the symbols are diamonds.
,"[0, 1]",exh-only,,1,"[9, 0, 0]",1,True,"[0, 1]",1,False,undefined,1394,0,5.9799,"[3, 1, 2]",1,9 + 9 = ?,Some of the symbols are diamonds.,3,"[6, 0, 0]",,False,filler,,,0,"[18, 9, 9]",0,"[0, 5, 2]",4259,1 + 2 = ?
,"[0, 1]",exh-only,,1,"[0, 0, 0]",1,True,"[0, 1]",1,True,undefined,1220,1,5.9799,"[7, 1, 3]",1,There is only a spade.,There is a note.,2,"[0, 0, 0]",,True,filler,,,2,"[3, 1, 2]",0,"[8, 0, 7]",3075,There is only a circle.
,"[1, 0]",exh-only,,0,"[0, 0, 0]",0,True,"[1, 0]",0,True,undefined,966,0,5.9799,"[2, 0, 5]",0,There is a star.,There is a club.,0,"[0, 0, 0]",,True,response,,,2,"[6, 8, 4]",0,"[1, 2, 5]",3007,There is a tick.
,"[0, 1]",exh-only,,1,"[0, 0, 0]",0,False,"[0, 1]",0,False,undefined,1449,1,5.9799,"[3, 2, 8]",1,There is a diamond.,There is a note.,0,"[0, 0, 0]",,True,response,,,2,"[0, 4, 2]",0,"[8, 7, 2]",4158,There is a spade.
,"[0, 1]",exh-only,,1,"[0, 0, 0]",1,True,"[0, 1]",1,True,undefined,1302,1,5.9799,"[4, 1, 9]",1,There is a diamond.,There is a star.,0,"[0, 0, 0]",,True,filler,,,2,"[0, 7, 3]",0,"[6, 5, 8]",3539,There is a heart.
,"[1, 0]",exh-only,,1,"[0, 0, 0]",1,True,"[0, 1]",1,True,undefined,839,0,5.9799,"[9, 8, 1]",0,There are four squares.,There are four notes.,0,"[0, 0, 0]",,True,filler,,,1,"[5, 7, 2]",0,"[8, 7, 9]",2875,There are four triangles.
,"[1, 0]",exh-only,,0,"[0, 0, 0]",1,False,"[1, 0]",1,False,undefined,1863,0,5.9799,"[3, 1, 7]",0,Some of the symbols are notes.,Some of the symbols are hearts.,0,"[0, 0, 0]",,True,response,,,0,"[8, 7, 4]",0,"[4, 3, 1]",4698,Some of the symbols are spades.
,"[1, 0]",exh-only,,0,"[3, 0, 0]",1,True,"[1, 0]",0,False,undefined,878,1,5.9799,"[7, 7, 0]",0,4 + 8 = ?,There are four triangles.,3,"[1, 0, 0]",,False,filler,,,1,"[12, 4, 8]",0,"[9, 7, 0]",2986,7 + 0 = ?
,"[1, 0]",exh-only,,0,"[0, 0, 0]",1,True,"[1, 0]",0,True,undefined,1099,0,5.9799,"[9, 2, 0]",0,There are four diamonds.,There are four hearts.,0,"[0, 0, 0]",,True,response,,,1,"[0, 4, 5]",0,"[4, 3, 2]",2864,There are four triangles.
,"[0, 1]",exh-only,,0,"[6, 0, 0]",0,False,"[1, 0]",1,False,undefined,1150,0,5.9799,"[9, 7, 2]",1,3 + 9 = ?,There is a triangle.,3,"[8, 0, 0]",,False,response,,,2,"[12, 3, 9]",0,"[9, 4, 8]",4135,7 + 2 = ?
,"[0, 1]",exh-only,,0,"[0, 0, 0]",1,False,"[1, 0]",1,False,undefined,1476,0,5.9799,"[1, 9, 8]",1,There is a spade.,There is a circle.,1,"[0, 0, 0]",,False,filler,,,2,"[3, 9, 4]",0,"[7, 5, 4]",3824,There is a club.
,"[1, 0]",exh-only,,1,"[0, 0, 0]",1,True,"[0, 1]",1,True,undefined,1194,0,5.9799,"[7, 6, 8]",0,Some of the symbols are hearts.,Some of the symbols are circles.,1,"[0, 0, 0]",,True,response,,,0,"[4, 6, 5]",0,"[7, 0, 5]",3383,Some of the symbols are circles.
,"[1, 0]",exh-only,,0,"[0, 0, 0]",1,True,"[1, 0]",0,True,undefined,815,0,5.9799,"[2, 3, 5]",0,There are four stars.,There are four ticks.,0,"[0, 0, 0]",,True,filler,,,1,"[6, 4, 9]",0,"[2, 5, 0]",2682,There are four ticks.
,"[0, 1]",exh-only,,0,"[0, 0, 0]",1,True,"[1, 0]",0,True,undefined,851,1,5.9799,"[7, 5, 2]",1,Some of the symbols are triangles.,Some of the symbols are hearts.,0,"[0, 0, 0]",,True,filler,,,0,"[9, 1, 3]",0,"[4, 9, 8]",3743,Some of the symbols are circles.
,"[0, 1]",exh-only,,1,"[0, 0, 0]",1,True,"[0, 1]",1,False,undefined,925,0,5.9799,"[5, 0, 3]",1,There are only four ticks.,There are four triangles.,2,"[0, 0, 0]",,False,filler,,,1,"[2, 3, 4]",0,"[9, 5, 3]",2856,There are only four squares.
,"[0, 1]",exh-only,,1,"[0, 0, 0]",1,False,"[0, 1]",0,False,undefined,1496,1,5.9799,"[7, 6, 1]",1,7 + 8 = ?,Some of the symbols are stars.,3,"[5, 0, 0]",,True,response,,,0,"[15, 7, 8]",0,"[6, 2, 8]",3577,6 + 1 = ?
,"[0, 1]",exh-only,,1,"[0, 0, 0]",1,True,"[0, 1]",1,True,undefined,1830,1,5.9799,"[7, 8, 5]",1,Only some of the symbols are triangles.,Some of the symbols are hearts.,2,"[0, 0, 0]",,True,response,,,0,"[9, 0, 4]",0,"[4, 5, 7]",4330,Only some of the symbols are circles.
,"[0, 1]",exh-only,,1,"[0, 0, 0]",1,True,"[0, 1]",1,True,undefined,1032,1,5.9799,"[4, 6, 5]",1,There is only a club.,There is a circle.,2,"[0, 0, 0]",,True,filler,,,2,"[1, 0, 8]",0,"[7, 2, 4]",2871,There is only a heart.
,"[1, 0]",exh-only,,1,"[0, 0, 0]",1,True,"[0, 1]",1,True,undefined,1071,0,5.9799,"[1, 2, 7]",0,Some of the symbols are hearts.,Some of the symbols are notes.,0,"[0, 0, 0]",,True,filler,,,0,"[4, 5, 2]",0,"[8, 5, 3]",3712,Some of the symbols are clubs.
,"[1, 0]",exh-only,,0,"[0, 0, 0]",1,True,"[1, 0]",0,True,undefined,1338,0,5.9799,"[1, 5, 4]",0,There are only four hearts.,There are four squares.,2,"[0, 0, 0]",,True,response,,,1,"[4, 9, 8]",0,"[5, 7, 3]",3224,There are only four clubs.
,"[0, 1]",exh-only,,1,"[0, 0, 0]",1,True,"[0, 1]",1,True,undefined,1024,1,5.9799,"[6, 1, 8]",1,Only some of the symbols are clubs.,Some of the symbols are circles.,2,"[0, 0, 0]",,True,filler,,,0,"[1, 3, 4]",0,"[7, 5, 2]",3938,Only some of the symbols are stars.
,"[1, 0]",exh-only,,1,"[0, 0, 0]",1,True,"[0, 1]",1,True,undefined,1295,0,5.9799,"[8, 5, 0]",0,Only some of the symbols are ticks.,Some of the symbols are stars.,2,"[0, 0, 0]",,True,filler,,,0,"[2, 7, 3]",0,"[6, 3, 0]",3856,Only some of the symbols are notes.
,"[0, 1]",exh-only,,1,"[0, 0, 0]",1,True,"[0, 1]",1,True,undefined,1335,1,5.9799,"[8, 9, 1]",1,There are four clubs.,There are four notes.,1,"[0, 0, 0]",,True,response,,,1,"[1, 9, 4]",0,"[8, 0, 7]",2956,There are four notes.
,"[1, 0]",exh-only,,1,"[0, 0, 0]",0,True,"[0, 1]",1,True,undefined,1509,0,5.9799,"[1, 3, 0]",0,There is only a square.,There is a spade.,2,"[0, 0, 0]",,True,response,,,2,"[5, 4, 1]",0,"[3, 2, 0]",3234,There is only a club.
,"[1, 0]",exh-only,,0,"[0, 0, 0]",1,True,"[1, 0]",0,True,undefined,814,0,5.9799,"[0, 5, 2]",0,There are only four triangles.,There are four spades.,2,"[0, 0, 0]",,True,filler,,,1,"[9, 0, 1]",0,"[3, 0, 2]",2490,There are only four diamonds.
,"[0, 1]",exh-only,,0,"[4, 0, 0]",0,True,"[1, 0]",0,True,undefined,1131,1,5.9799,"[9, 3, 6]",1,3 + 7 = ?,There is a star.,3,"[8, 0, 0]",,True,response,,,2,"[10, 3, 7]",0,"[6, 9, 2]",3574,3 + 6 = ?
,"[1, 0]",exh-only,,0,"[6, 0, 0]",1,False,"[1, 0]",1,False,undefined,1190,0,5.9799,"[12, 9, 3]",0,2 + 0 = ?,There are four ticks.,3,"[0, 0, 0]",,True,response,,,1,"[2, 2, 0]",0,"[2, 7, 3]",3507,9 + 3 = ?
,"[1, 0]",exh-only,,1,"[0, 0, 0]",1,True,"[0, 1]",1,True,undefined,1322,0,5.9799,"[5, 4, 8]",0,Some of the symbols are circles.,Some of the symbols are diamonds.,0,"[0, 0, 0]",,True,filler,,,0,"[7, 8, 1]",0,"[0, 6, 7]",3892,Some of the symbols are squares.
,"[0, 1]",exh-only,,0,"[4, 0, 0]",1,False,"[1, 0]",1,False,undefined,1762,0,5.9799,"[6, 3, 3]",1,6 + 1 = ?,There are four spades.,3,"[3, 0, 0]",,False,response,,,1,"[7, 6, 1]",0,"[3, 9, 4]",3860,3 + 3 = ?
,"[0, 1]",exh-only,,0,"[0, 0, 0]",1,False,"[1, 0]",1,False,undefined,1126,0,5.9799,"[1, 1, 0]",1,5 + 9 = ?,There is a star.,3,"[9, 0, 0]",,False,filler,,,2,"[14, 5, 9]",0,"[6, 9, 2]",3135,1 + 0 = ?
,"[0, 1]",exh-only,,1,"[0, 0, 0]",0,True,"[0, 1]",1,True,undefined,1230,1,5.9799,"[3, 9, 6]",1,There is only a note.,There is a heart.,2,"[0, 0, 0]",,True,response,,,2,"[8, 6, 5]",0,"[4, 6, 1]",3241,There is only a spade.
,"[1, 0]",exh-only,,1,"[0, 0, 0]",1,True,"[0, 1]",1,True,undefined,1050,0,5.9799,"[9, 2, 7]",0,Some of the symbols are squares.,Some of the symbols are diamonds.,1,"[0, 0, 0]",,True,filler,,,0,"[5, 6, 1]",0,"[0, 3, 2]",2954,Some of the symbols are triangles.
,"[0, 1]",exh-only,,1,"[0, 0, 0]",0,True,"[0, 1]",1,True,undefined,1208,1,5.9799,"[7, 0, 2]",1,There are four spades.,There are four diamonds.,0,"[0, 0, 0]",,True,response,,,1,"[3, 0, 9]",0,"[0, 5, 4]",3019,There are four circles.
,"[1, 0]",exh-only,,0,"[0, 0, 0]",1,True,"[1, 0]",0,True,undefined,1115,0,5.9799,"[4, 8, 7]",0,Only some of the symbols are squares.,Some of the symbols are ticks.,2,"[0, 0, 0]",,True,filler,,,0,"[5, 9, 7]",0,"[2, 6, 9]",3406,Only some of the symbols are hearts.
,"[0, 1]",exh-only,,0,"[0, 0, 0]",1,True,"[1, 0]",0,True,undefined,917,1,5.9799,"[8, 6, 2]",1,There are four diamonds.,There are four notes.,1,"[0, 0, 0]",,True,filler,,,1,"[0, 3, 8]",0,"[8, 5, 6]",3168,There are four notes.
,"[0, 1]",exh-only,,1,"[1, 0, 0]",1,True,"[0, 1]",1,False,undefined,1009,0,5.9799,"[8, 7, 1]",1,6 + 5 = ?,Some of the symbols are hearts.,3,"[7, 0, 0]",,False,response,,,0,"[11, 6, 5]",0,"[4, 3, 0]",4280,7 + 1 = ?
,"[1, 0]",exh-only,,1,"[0, 0, 0]",1,True,"[0, 1]",1,True,undefined,1035,0,5.9799,"[2, 0, 6]",0,Some of the symbols are clubs.,Some of the symbols are hearts.,1,"[0, 0, 0]",,True,response,,,0,"[1, 0, 9]",0,"[4, 3, 8]",3838,Some of the symbols are ticks.
,"[0, 1]",exh-only,,1,"[4, 0, 0]",0,True,"[0, 1]",1,False,undefined,1152,0,5.9799,"[2, 0, 2]",1,9 + 8 = ?,There is a heart.,3,"[3, 0, 0]",,False,response,,,2,"[17, 9, 8]",0,"[4, 7, 6]",3046,0 + 2 = ?
,"[1, 0]",exh-only,,1,"[0, 0, 0]",0,True,"[0, 1]",1,True,undefined,1138,0,5.9799,"[9, 7, 8]",0,There is only a heart.,There is a triangle.,2,"[0, 0, 0]",,True,response,,,2,"[4, 5, 6]",0,"[9, 7, 2]",3007,There is only a triangle.
,"[0, 1]",exh-only,,1,"[7, 0, 0]",1,False,"[0, 1]",0,False,undefined,940,1,5.9799,"[10, 4, 6]",1,7 + 6 = ?,Some of the symbols are circles.,3,"[3, 0, 0]",,True,filler,,,0,"[13, 7, 6]",0,"[7, 4, 1]",2871,4 + 6 = ?
,"[0, 1]",exh-only,,0,"[0, 0, 0]",1,True,"[1, 0]",0,True,undefined,845,1,5.9799,"[7, 3, 2]",1,There are four diamonds.,There are four diamonds.,1,"[0, 0, 0]",,True,response,,,1,"[0, 2, 1]",0,"[0, 6, 7]",2500,There are four circles.
,"[0, 1]",exh-only,,0,"[0, 0, 0]",0,False,"[1, 0]",1,False,undefined,784,0,5.9799,"[1, 7, 3]",1,There is a club.,There is a tick.,1,"[0, 0, 0]",,False,response,,,2,"[1, 4, 5]",0,"[2, 3, 0]",3624,There is a club.
,"[1, 0]",exh-only,,0,"[0, 0, 0]",0,True,"[1, 0]",0,True,undefined,920,0,5.9799,"[0, 2, 5]",0,There is a square.,There is a circle.,0,"[0, 0, 0]",,True,response,,,2,"[5, 6, 3]",0,"[7, 3, 8]",3681,There is a diamond.
,"[0, 1]",exh-only,,0,"[0, 0, 0]",1,False,"[1, 0]",1,False,undefined,1711,0,5.9799,"[11, 9, 2]",1,7 + 5 = ?,There is a spade.,3,"[4, 0, 0]",,False,filler,,,2,"[12, 7, 5]",0,"[3, 5, 0]",3979,9 + 2 = ?
,"[1, 0]",exh-only,,0,"[0, 0, 0]",1,True,"[1, 0]",0,True,undefined,873,0,5.9799,"[8, 0, 2]",0,There are only four ticks.,There are four hearts.,2,"[0, 0, 0]",,True,response,,,1,"[2, 3, 4]",0,"[4, 6, 8]",2481,There are only four notes.
,"[1, 0]",exh-only,,1,"[0, 0, 0]",1,True,"[0, 1]",1,True,undefined,1552,0,5.9799,"[11, 8, 3]",0,2 + 1 = ?,There are four notes.,3,"[0, 0, 0]",,True,response,,,1,"[3, 2, 1]",0,"[8, 1, 7]",3290,8 + 3 = ?
,"[0, 1]",exh-only,,0,"[0, 0, 0]",0,True,"[1, 0]",0,True,undefined,1210,1,5.9799,"[0, 2, 7]",1,Some of the symbols are clubs.,Some of the symbols are spades.,0,"[0, 0, 0]",,True,response,,,0,"[1, 2, 6]",0,"[3, 6, 5]",4092,Some of the symbols are diamonds.
,"[0, 1]",exh-only,,0,"[0, 0, 0]",0,True,"[1, 0]",0,True,undefined,1410,1,5.9799,"[4, 5, 9]",1,Some of the symbols are clubs.,Some of the symbols are notes.,0,"[0, 0, 0]",,True,response,,,0,"[1, 2, 6]",0,"[8, 4, 7]",4002,Some of the symbols are hearts.
,"[1, 0]",exh-only,,1,"[0, 0, 0]",1,True,"[0, 1]",1,True,undefined,1081,0,5.9799,"[5, 0, 1]",0,There are four squares.,There are four squares.,1,"[0, 0, 0]",,True,response,,,1,"[5, 8, 4]",0,"[5, 8, 2]",3050,There are four squares.
,"[0, 1]",exh-only,,1,"[0, 0, 0]",1,True,"[0, 1]",1,True,undefined,1218,1,5.9799,"[2, 8, 7]",1,Some of the symbols are hearts.,Some of the symbols are squares.,0,"[0, 0, 0]",,True,filler,,,0,"[4, 0, 1]",0,"[5, 7, 3]",3616,Some of the symbols are ticks.
,"[0, 1]",exh-only,,1,"[7, 0, 0]",1,False,"[0, 1]",0,False,undefined,1191,1,5.9799,"[10, 1, 9]",1,8 + 4 = ?,Some of the symbols are hearts.,3,"[7, 0, 0]",,True,response,,,0,"[12, 8, 4]",0,"[4, 1, 0]",3780,1 + 9 = ?
,"[0, 1]",exh-only,,0,"[0, 0, 0]",1,True,"[1, 0]",0,True,undefined,864,1,5.9799,"[7, 1, 9]",1,Some of the symbols are triangles.,Some of the symbols are stars.,1,"[0, 0, 0]",,True,filler,,,0,"[9, 8, 4]",0,"[6, 4, 3]",2937,Some of the symbols are circles.
,"[1, 0]",exh-only,,1,"[0, 0, 0]",1,True,"[0, 1]",1,True,undefined,1115,0,5.9799,"[7, 2, 6]",0,There are four triangles.,There are four notes.,1,"[0, 0, 0]",,True,response,,,1,"[9, 7, 4]",0,"[8, 3, 4]",2692,There are four circles.
,"[1, 0]",exh-only,,1,"[0, 0, 0]",1,True,"[0, 1]",1,True,undefined,842,0,5.9799,"[1, 0, 2]",0,There are only four stars.,There are four circles.,2,"[0, 0, 0]",,True,filler,,,1,"[6, 0, 5]",0,"[7, 4, 9]",2402,There are only four clubs.
,"[0, 1]",exh-only,,1,"[0, 0, 0]",1,True,"[0, 1]",1,True,undefined,1488,1,5.9799,"[3, 4, 6]",1,Only some of the symbols are hearts.,Some of the symbols are notes.,2,"[0, 0, 0]",,True,response,,,0,"[4, 5, 7]",0,"[8, 3, 1]",3990,Only some of the symbols are spades.
,"[1, 0]",exh-only,,0,"[0, 0, 0]",1,True,"[1, 0]",0,True,undefined,1010,0,5.9799,"[0, 5, 4]",0,Only some of the symbols are diamonds.,Some of the symbols are hearts.,2,"[0, 0, 0]",,True,response,,,0,"[0, 5, 9]",0,"[4, 5, 6]",3063,Only some of the symbols are diamonds.
,"[1, 0]",exh-only,,0,"[0, 0, 0]",1,True,"[1, 0]",0,True,undefined,1167,0,5.9799,"[4, 0, 7]",0,Only some of the symbols are notes.,Some of the symbols are diamonds.,2,"[0, 0, 0]",,True,filler,,,0,"[8, 2, 6]",0,"[0, 4, 5]",3790,Only some of the symbols are hearts.
,"[0, 1]",exh-only,,1,"[0, 0, 0]",1,True,"[0, 1]",1,True,undefined,846,1,5.9799,"[2, 6, 3]",1,There are four hearts.,There are four circles.,0,"[0, 0, 0]",,True,filler,,,1,"[4, 6, 2]",0,"[7, 9, 4]",2573,There are four ticks.
,"[1, 0]",exh-only,,1,"[0, 0, 0]",0,True,"[0, 1]",1,True,undefined,1233,0,5.9799,"[3, 5, 8]",0,There is a tick.,There is a circle.,1,"[0, 0, 0]",,True,response,,,2,"[2, 1, 4]",0,"[7, 0, 6]",3455,There is a spade.
,"[0, 1]",exh-only,,1,"[0, 0, 0]",1,True,"[0, 1]",1,True,undefined,1268,1,5.9799,"[8, 0, 3]",1,There is a heart.,There is a heart.,0,"[0, 0, 0]",,True,filler,,,2,"[4, 8, 3]",0,"[4, 7, 2]",3565,There is a note.
,"[1, 0]",exh-only,,1,"[0, 0, 0]",1,True,"[0, 1]",1,True,undefined,1009,0,5.9799,"[4, 2, 7]",0,There are four clubs.,There are four circles.,1,"[0, 0, 0]",,True,filler,,,1,"[1, 6, 2]",0,"[7, 0, 4]",2803,There are four hearts.
,"[0, 1]",exh-only,,0,"[0, 0, 0]",1,True,"[1, 0]",0,True,undefined,1055,1,5.9799,"[6, 9, 8]",1,There is only a note.,There is a triangle.,2,"[0, 0, 0]",,True,response,,,2,"[8, 1, 0]",0,"[9, 6, 8]",3415,There is only a star.
,"[1, 0]",exh-only,,0,"[0, 0, 0]",1,True,"[1, 0]",0,True,undefined,835,0,5.9799,"[9, 8, 0]",0,There are only four diamonds.,There are four triangles.,2,"[0, 0, 0]",,True,response,,,1,"[0, 4, 2]",0,"[9, 4, 2]",2558,There are only four triangles.
,"[1, 0]",exh-only,,0,"[5, 0, 0]",1,True,"[1, 0]",0,False,undefined,984,1,5.9799,"[5, 1, 4]",0,4 + 7 = ?,There are four stars.,3,"[1, 0, 0]",,False,filler,,,1,"[11, 4, 7]",0,"[6, 7, 2]",3083,1 + 4 = ?
,"[1, 0]",exh-only,,0,"[0, 0, 0]",1,False,"[1, 0]",1,False,undefined,1358,0,5.9799,"[1, 0, 1]",0,8 + 5 = ?,Some of the symbols are spades.,3,"[6, 0, 0]",,True,response,,,0,"[13, 8, 5]",0,"[3, 6, 2]",3452,0 + 1 = ?
,"[1, 0]",exh-only,,0,"[0, 0, 0]",1,True,"[1, 0]",0,True,undefined,1383,0,5.9799,"[4, 6, 2]",0,There are four stars.,There are four ticks.,0,"[0, 0, 0]",,True,filler,,,1,"[6, 3, 7]",0,"[2, 1, 5]",3230,There are four hearts.
,"[1, 0]",exh-only,,0,"[0, 0, 0]",1,True,"[1, 0]",0,True,undefined,972,0,5.9799,"[2, 9, 0]",0,There is only a star.,There is a tick.,2,"[0, 0, 0]",,True,filler,,,2,"[6, 2, 5]",0,"[2, 7, 0]",2873,There is only a tick.
,"[0, 1]",exh-only,,1,"[0, 0, 0]",0,True,"[0, 1]",1,True,undefined,1052,1,5.9799,"[1, 2, 8]",1,There is a tick.,There is a heart.,1,"[0, 0, 0]",,True,response,,,2,"[2, 6, 1]",0,"[4, 5, 0]",3006,There is a club.
,"[0, 1]",exh-only,,0,"[0, 0, 0]",1,True,"[1, 0]",0,True,undefined,855,1,5.9799,"[8, 3, 4]",1,Some of the symbols are stars.,Some of the symbols are ticks.,1,"[0, 0, 0]",,True,filler,,,0,"[6, 3, 0]",0,"[2, 4, 9]",3375,Some of the symbols are notes.
,"[1, 0]",exh-only,,1,"[8, 0, 0]",1,False,"[0, 1]",0,False,undefined,1201,1,5.9799,"[7, 3, 4]",0,9 + 4 = ?,There are four notes.,3,"[9, 0, 0]",,False,response,,,1,"[13, 9, 4]",0,"[8, 2, 5]",4327,3 + 4 = ?
,"[0, 1]",exh-only,,0,"[0, 0, 0]",0,True,"[1, 0]",0,True,undefined,860,1,5.9799,"[2, 0, 9]",1,Some of the symbols are stars.,Some of the symbols are triangles.,0,"[0, 0, 0]",,True,response,,,0,"[6, 2, 8]",0,"[9, 2, 0]",3225,Some of the symbols are ticks.
,"[0, 1]",exh-only,,1,"[3, 0, 0]",1,True,"[0, 1]",1,False,undefined,1105,0,5.9799,"[13, 9, 4]",1,5 + 7 = ?,Some of the symbols are clubs.,3,"[7, 0, 0]",,False,filler,,,0,"[12, 5, 7]",0,"[1, 7, 2]",3758,9 + 4 = ?
,"[0, 1]",exh-only,,0,"[0, 0, 0]",1,True,"[1, 0]",0,True,undefined,1485,1,5.9799,"[7, 1, 2]",1,There are four hearts.,There are four clubs.,0,"[0, 0, 0]",,True,response,,,1,"[4, 9, 7]",0,"[1, 4, 6]",3630,There are four circles.
,"[0, 1]",exh-only,,0,"[0, 0, 0]",1,True,"[1, 0]",0,True,undefined,1453,1,5.9799,"[0, 6, 3]",1,There is a star.,There is a diamond.,1,"[0, 0, 0]",,True,filler,,,2,"[6, 0, 1]",0,"[0, 6, 4]",3822,There is a diamond.
,"[1, 0]",exh-only,,1,"[0, 0, 0]",1,False,"[0, 1]",0,False,undefined,969,1,5.9799,"[3, 5, 1]",0,There is a note.,There is a triangle.,1,"[0, 0, 0]",,False,filler,,,2,"[8, 7, 4]",0,"[9, 5, 2]",2928,There is a spade.
,"[1, 0]",exh-only,,0,"[0, 0, 0]",1,True,"[1, 0]",0,True,undefined,984,0,5.9799,"[0, 1, 3]",0,There are only four circles.,There are four notes.,2,"[0, 0, 0]",,True,filler,,,1,"[7, 6, 2]",0,"[8, 5, 2]",2686,There are only four diamonds.
Jessica,,,,,,,,,,,undefined,,,14.940916666666666,,,,,,,1,,,bot_check,"[0, 'Jessica']",,,1,,,
,"[1, 0]",exh-only,,0,"[1, 0, 0]",1,True,"[1, 0]",0,False,undefined,3582,1,14.940916666666666,"[13, 9, 4]",0,2 + 1 = ?,Some of the symbols are diamonds.,3,"[0, 0, 0]",,False,filler,,,0,"[3, 2, 1]",1,"[0, 2, 4]",10559,9 + 4 = ?
,"[0, 1]",exh-only,,0,"[0, 0, 0]",0,True,"[1, 0]",0,True,undefined,3302,1,14.940916666666666,"[2, 1, 7]",1,There are four spades.,There are four stars.,0,"[0, 0, 0]",,True,response,,,1,"[3, 2, 9]",1,"[6, 0, 8]",10087,There are four ticks.
,"[1, 0]",exh-only,,0,"[5, 0, 0]",0,False,"[1, 0]",1,False,undefined,3035,0,14.940916666666666,"[9, 8, 1]",0,3 + 0 = ?,There is a heart.,3,"[7, 0, 0]",,True,filler,,,2,"[3, 3, 0]",1,"[4, 3, 1]",7548,8 + 1 = ?
,"[1, 0]",exh-only,,0,"[0, 0, 0]",1,True,"[1, 0]",0,True,undefined,2367,0,14.940916666666666,"[3, 0, 9]",0,There are four stars.,There are four notes.,1,"[0, 0, 0]",,True,filler,,,1,"[6, 5, 3]",1,"[8, 2, 5]",9476,There are four spades.
,"[1, 0]",exh-only,,1,"[0, 0, 0]",1,True,"[0, 1]",1,True,undefined,3119,0,14.940916666666666,"[7, 9, 5]",0,Some of the symbols are clubs.,Some of the symbols are stars.,1,"[0, 0, 0]",,True,filler,,,0,"[1, 7, 0]",1,"[6, 8, 1]",10959,Some of the symbols are circles.
,"[1, 0]",exh-only,,0,"[0, 0, 0]",1,True,"[1, 0]",0,True,undefined,2623,0,14.940916666666666,"[7, 9, 4]",0,There is a heart.,There is a circle.,1,"[0, 0, 0]",,True,response,,,2,"[4, 5, 8]",1,"[7, 6, 1]",8064,There is a circle.
,"[1, 0]",exh-only,,1,"[0, 0, 0]",1,True,"[0, 1]",1,True,undefined,2498,0,14.940916666666666,"[7, 4, 3]",0,There are four squares.,There are four stars.,1,"[0, 0, 0]",,True,filler,,,1,"[5, 6, 0]",1,"[6, 9, 8]",7897,There are four circles.
,"[1, 0]",exh-only,,1,"[1, 0, 0]",1,False,"[0, 1]",0,False,undefined,3511,1,14.940916666666666,"[13, 6, 7]",0,5 + 4 = ?,Some of the symbols are ticks.,3,"[9, 0, 0]",,False,response,,,0,"[9, 5, 4]",1,"[2, 1, 4]",8543,6 + 7 = ?
,"[1, 0]",exh-only,,1,"[0, 0, 0]",1,True,"[0, 1]",1,True,undefined,2550,0,14.940916666666666,"[2, 8, 1]",0,Some of the symbols are stars.,Some of the symbols are diamonds.,1,"[0, 0, 0]",,True,filler,,,0,"[6, 1, 0]",1,"[0, 1, 9]",7424,Some of the symbols are ticks.
,"[1, 0]",exh-only,,1,"[0, 0, 0]",1,True,"[0, 1]",1,True,undefined,2375,0,14.940916666666666,"[1, 5, 2]",0,There are four notes.,There are four circles.,1,"[0, 0, 0]",,True,response,,,1,"[8, 4, 1]",1,"[7, 9, 3]",7376,There are four clubs.
,"[1, 0]",exh-only,,1,"[0, 0, 0]",1,True,"[0, 1]",1,True,undefined,2336,0,14.940916666666666,"[7, 8, 5]",0,There is only a spade.,There is a circle.,2,"[0, 0, 0]",,True,filler,,,2,"[3, 2, 5]",1,"[7, 3, 6]",7169,There is only a circle.
,"[1, 0]",exh-only,,0,"[0, 0, 0]",1,True,"[1, 0]",0,True,undefined,2256,0,14.940916666666666,"[8, 9, 4]",0,There is only a circle.,There is a note.,2,"[0, 0, 0]",,True,response,,,2,"[7, 3, 2]",1,"[8, 9, 4]",6704,There is only a note.
,"[1, 0]",exh-only,,0,"[0, 0, 0]",1,True,"[1, 0]",0,True,undefined,2671,0,14.940916666666666,"[1, 6, 5]",0,Some of the symbols are triangles.,Some of the symbols are circles.,0,"[0, 0, 0]",,True,filler,,,0,"[9, 6, 5]",1,"[7, 4, 1]",10969,Some of the symbols are clubs.
,"[0, 1]",exh-only,,1,"[0, 0, 0]",1,True,"[0, 1]",1,True,undefined,2333,1,14.940916666666666,"[0, 2, 6]",1,Some of the symbols are squares.,Some of the symbols are triangles.,1,"[0, 0, 0]",,True,response,,,0,"[5, 0, 4]",1,"[9, 8, 0]",7797,Some of the symbols are diamonds.
,"[1, 0]",exh-only,,1,"[0, 0, 0]",1,False,"[0, 1]",0,False,undefined,2463,1,14.940916666666666,"[8, 6, 2]",0,9 + 1 = ?,There are four clubs.,3,"[5, 0, 0]",,False,filler,,,1,"[10, 9, 1]",1,"[1, 6, 0]",7048,6 + 2 = ?
,"[0, 1]",exh-only,,0,"[0, 0, 0]",1,True,"[1, 0]",0,True,undefined,2143,1,14.940916666666666,"[4, 5, 0]",1,Some of the symbols are diamonds.,Some of the symbols are ticks.,1,"[0, 0, 0]",,True,response,,,0,"[0, 2, 3]",1,"[2, 6, 0]",8976,Some of the symbols are hearts.
,"[0, 1]",exh-only,,1,"[0, 0, 0]",1,True,"[0, 1]",1,True,undefined,3295,1,14.940916666666666,"[8, 2, 3]",1,There is a spade.,There is a spade.,0,"[0, 0, 0]",,True,response,,,2,"[3, 7, 4]",1,"[3, 9, 2]",32144,There is a note.
,"[1, 0]",exh-only,,0,"[0, 0, 0]",1,False,"[1, 0]",1,False,undefined,2214,0,14.940916666666666,"[11, 7, 4]",0,9 + 4 = ?,There is a note.,3,"[9, 0, 0]",,True,filler,,,2,"[13, 9, 4]",1,"[8, 1, 0]",7135,7 + 4 = ?
,"[1, 0]",exh-only,,1,"[0, 0, 0]",1,True,"[0, 1]",1,True,undefined,2559,0,14.940916666666666,"[7, 9, 8]",0,There is a spade.,There is a heart.,1,"[0, 0, 0]",,True,response,,,2,"[3, 2, 8]",1,"[4, 7, 0]",6761,There is a circle.
,"[1, 0]",exh-only,,0,"[0, 0, 0]",1,True,"[1, 0]",0,True,undefined,2984,0,14.940916666666666,"[5, 3, 8]",0,There is only a star.,There is a heart.,2,"[0, 0, 0]",,True,response,,,2,"[6, 2, 5]",1,"[4, 5, 2]",6816,There is only a square.
,"[0, 1]",exh-only,,0,"[8, 0, 0]",1,True,"[1, 0]",0,True,undefined,3318,1,14.940916666666666,"[9, 9, 0]",1,9 + 1 = ?,There is a club.,3,"[4, 0, 0]",,True,response,,,2,"[10, 9, 1]",1,"[1, 8, 6]",7360,9 + 0 = ?
,"[0, 1]",exh-only,,0,"[0, 0, 0]",1,True,"[1, 0]",0,True,undefined,6087,1,14.940916666666666,"[1, 8, 9]",1,Some of the symbols are ticks.,Some of the symbols are diamonds.,0,"[0, 0, 0]",,True,filler,,,0,"[2, 6, 9]",1,"[0, 4, 1]",12199,Some of the symbols are clubs.
,"[0, 1]",exh-only,,1,"[0, 0, 0]",1,True,"[0, 1]",1,True,undefined,3575,1,14.940916666666666,"[2, 1, 9]",1,Some of the symbols are notes.,Some of the symbols are diamonds.,1,"[0, 0, 0]",,True,response,,,0,"[8, 4, 9]",1,"[0, 7, 6]",9103,Some of the symbols are ticks.
,"[1, 0]",exh-only,,1,"[0, 0, 0]",1,True,"[0, 1]",1,True,undefined,2189,0,14.940916666666666,"[2, 4, 0]",0,There is only a heart.,There is a spade.,2,"[0, 0, 0]",,True,filler,,,2,"[4, 7, 3]",1,"[3, 5, 1]",7823,There is only a tick.
,"[1, 0]",exh-only,,0,"[8, 0, 0]",1,False,"[1, 0]",1,False,undefined,3256,0,14.940916666666666,"[12, 6, 6]",0,5 + 5 = ?,Some of the symbols are diamonds.,3,"[7, 0, 0]",,True,filler,,,0,"[10, 5, 5]",1,"[0, 5, 3]",7088,6 + 6 = ?
,"[0, 1]",exh-only,,0,"[0, 0, 0]",1,True,"[1, 0]",0,True,undefined,2271,1,14.940916666666666,"[3, 8, 7]",1,There are only four spades.,There are four triangles.,2,"[0, 0, 0]",,True,response,,,1,"[3, 8, 9]",1,"[9, 3, 4]",16360,There are only four spades.
,"[1, 0]",exh-only,,1,"[0, 0, 0]",0,True,"[0, 1]",1,True,undefined,2439,0,14.940916666666666,"[0, 8, 4]",0,Some of the symbols are circles.,Some of the symbols are spades.,0,"[0, 0, 0]",,True,response,,,0,"[7, 3, 9]",1,"[3, 5, 8]",8416,Some of the symbols are diamonds.
,"[1, 0]",exh-only,,1,"[0, 0, 0]",1,True,"[0, 1]",1,True,undefined,2296,0,14.940916666666666,"[0, 4, 5]",0,There are only four hearts.,There are four spades.,2,"[0, 0, 0]",,True,filler,,,1,"[4, 0, 8]",1,"[3, 2, 8]",32273,There are only four diamonds.
,"[0, 1]",exh-only,,1,"[0, 0, 0]",1,True,"[0, 1]",1,True,undefined,1702,1,14.940916666666666,"[4, 3, 5]",1,There is a note.,There is a club.,0,"[0, 0, 0]",,True,filler,,,2,"[8, 1, 6]",1,"[1, 2, 6]",7663,There is a heart.
,"[1, 0]",exh-only,,0,"[3, 0, 0]",1,False,"[1, 0]",1,False,undefined,2575,0,14.940916666666666,"[8, 3, 5]",0,4 + 6 = ?,Some of the symbols are notes.,3,"[5, 0, 0]",,True,filler,,,0,"[10, 4, 6]",1,"[8, 0, 3]",6816,3 + 5 = ?
,"[0, 1]",exh-only,,1,"[7, 0, 0]",1,False,"[0, 1]",0,False,undefined,2383,1,14.940916666666666,"[9, 1, 8]",1,4 + 9 = ?,There are four circles.,3,"[8, 0, 0]",,True,filler,,,1,"[13, 4, 9]",1,"[7, 1, 3]",6248,1 + 8 = ?
,"[1, 0]",exh-only,,1,"[2, 0, 0]",1,False,"[0, 1]",0,False,undefined,2126,1,14.940916666666666,"[4, 3, 1]",0,2 + 9 = ?,Some of the symbols are notes.,3,"[8, 0, 0]",,False,response,,,0,"[11, 2, 9]",1,"[8, 5, 0]",6360,3 + 1 = ?
,"[0, 1]",exh-only,,1,"[9, 0, 0]",1,False,"[0, 1]",0,False,undefined,3263,1,14.940916666666666,"[5, 2, 3]",1,2 + 4 = ?,Some of the symbols are squares.,3,"[2, 0, 0]",,True,response,,,0,"[6, 2, 4]",1,"[5, 6, 8]",7488,2 + 3 = ?
,"[0, 1]",exh-only,,1,"[0, 0, 0]",1,True,"[0, 1]",1,True,undefined,2295,1,14.940916666666666,"[4, 7, 5]",1,There is a heart.,There is a triangle.,0,"[0, 0, 0]",,True,filler,,,2,"[4, 6, 0]",1,"[9, 2, 7]",6920,There is a heart.
,"[0, 1]",exh-only,,0,"[0, 0, 0]",0,True,"[1, 0]",0,True,undefined,2311,1,14.940916666666666,"[0, 1, 4]",1,There are four notes.,There are four hearts.,0,"[0, 0, 0]",,True,response,,,1,"[8, 2, 5]",1,"[4, 6, 9]",6608,There are four diamonds.
,"[1, 0]",exh-only,,0,"[0, 0, 0]",1,True,"[1, 0]",0,True,undefined,2143,0,14.940916666666666,"[5, 1, 6]",0,There are four notes.,There are four circles.,1,"[0, 0, 0]",,True,filler,,,1,"[8, 9, 3]",1,"[7, 6, 9]",6063,There are four squares.
,"[1, 0]",exh-only,,1,"[0, 0, 0]",1,True,"[0, 1]",1,True,undefined,2271,0,14.940916666666666,"[3, 4, 1]",0,There are four ticks.,There are four diamonds.,0,"[0, 0, 0]",,True,filler,,,1,"[2, 7, 4]",1,"[0, 4, 1]",6616,There are four spades.
,"[0, 1]",exh-only,,1,"[0, 0, 0]",1,True,"[0, 1]",1,True,undefined,1478,1,14.940916666666666,"[5, 9, 4]",1,There are four squares.,There are four notes.,0,"[0, 0, 0]",,True,filler,,,1,"[5, 7, 2]",1,"[8, 3, 4]",5728,There are four squares.
,"[0, 1]",exh-only,,1,"[6, 0, 0]",0,False,"[0, 1]",0,False,undefined,3742,1,14.940916666666666,"[12, 6, 6]",1,8 + 6 = ?,Some of the symbols are stars.,3,"[5, 0, 0]",,True,response,,,0,"[14, 8, 6]",1,"[6, 3, 7]",9928,6 + 6 = ?
,"[1, 0]",exh-only,,1,"[0, 0, 0]",1,True,"[0, 1]",1,True,undefined,4815,0,14.940916666666666,"[5, 5, 0]",0,8 + 9 = ?,There are four ticks.,3,"[6, 0, 0]",,True,response,,,1,"[17, 8, 9]",1,"[2, 8, 3]",10000,5 + 0 = ?
,"[0, 1]",exh-only,,1,"[6, 0, 0]",1,False,"[0, 1]",0,False,undefined,2659,1,14.940916666666666,"[11, 9, 2]",1,5 + 4 = ?,There are four notes.,3,"[5, 0, 0]",,True,response,,,1,"[9, 5, 4]",1,"[8, 6, 9]",6472,9 + 2 = ?
,"[1, 0]",exh-only,,0,"[0, 0, 0]",1,True,"[1, 0]",0,True,undefined,8647,0,14.940916666666666,"[3, 4, 6]",0,There are four triangles.,There are four ticks.,0,"[0, 0, 0]",,True,response,,,1,"[9, 0, 3]",1,"[2, 8, 1]",15768,There are four spades.
,"[0, 1]",exh-only,,1,"[0, 0, 0]",1,True,"[0, 1]",1,True,undefined,2143,1,14.940916666666666,"[2, 3, 4]",1,Some of the symbols are diamonds.,Some of the symbols are ticks.,0,"[0, 0, 0]",,True,response,,,0,"[0, 5, 8]",1,"[2, 4, 7]",10617,Some of the symbols are ticks.
,"[0, 1]",exh-only,,0,"[0, 0, 0]",1,True,"[1, 0]",0,True,undefined,1863,1,14.940916666666666,"[9, 6, 0]",1,Some of the symbols are squares.,Some of the symbols are circles.,1,"[0, 0, 0]",,True,filler,,,0,"[5, 4, 1]",1,"[7, 9, 2]",6776,Some of the symbols are triangles.
,"[1, 0]",exh-only,,1,"[0, 0, 0]",1,True,"[0, 1]",1,True,undefined,1791,0,14.940916666666666,"[4, 1, 2]",0,There are four spades.,There are four clubs.,0,"[0, 0, 0]",,True,filler,,,1,"[3, 0, 7]",1,"[1, 9, 5]",5352,There are four hearts.
,"[1, 0]",exh-only,,1,"[0, 0, 0]",0,True,"[0, 1]",1,False,undefined,2686,1,14.940916666666666,"[0, 3, 4]",0,There is a spade.,There is a spade.,0,"[0, 0, 0]",,False,response,,,2,"[3, 1, 0]",1,"[3, 7, 0]",9264,There is a diamond.
,"[1, 0]",exh-only,,1,"[0, 0, 0]",1,True,"[0, 1]",1,True,undefined,2951,0,14.940916666666666,"[0, 9, 5]",0,Only some of the symbols are squares.,Some of the symbols are circles.,2,"[0, 0, 0]",,True,filler,,,0,"[5, 7, 2]",1,"[7, 8, 3]",9864,Only some of the symbols are diamonds.
,"[0, 1]",exh-only,,0,"[0, 0, 0]",1,True,"[1, 0]",0,True,undefined,3607,1,14.940916666666666,"[1, 2, 7]",1,Some of the symbols are circles.,Some of the symbols are squares.,0,"[0, 0, 0]",,True,response,,,0,"[7, 6, 8]",1,"[5, 4, 6]",9448,Some of the symbols are clubs.
,"[0, 1]",exh-only,,0,"[0, 0, 0]",1,True,"[1, 0]",0,True,undefined,3142,1,14.940916666666666,"[1, 4, 2]",1,There are four notes.,There are four diamonds.,1,"[0, 0, 0]",,True,response,,,1,"[8, 9, 5]",1,"[0, 8, 1]",15367,There are four clubs.
,"[1, 0]",exh-only,,0,"[0, 0, 0]",1,True,"[1, 0]",0,True,undefined,3159,0,14.940916666666666,"[8, 9, 3]",0,Some of the symbols are hearts.,Some of the symbols are notes.,1,"[0, 0, 0]",,True,filler,,,0,"[4, 5, 9]",1,"[8, 7, 2]",9127,Some of the symbols are notes.
,"[1, 0]",exh-only,,1,"[0, 0, 0]",1,True,"[0, 1]",1,True,undefined,2975,0,14.940916666666666,"[2, 8, 1]",0,Only some of the symbols are circles.,Some of the symbols are stars.,2,"[0, 0, 0]",,True,response,,,0,"[7, 2, 3]",1,"[6, 3, 1]",8576,Only some of the symbols are ticks.
,"[0, 1]",exh-only,,1,"[1, 0, 0]",1,True,"[0, 1]",1,False,undefined,2487,0,14.940916666666666,"[10, 3, 7]",1,7 + 4 = ?,There are four clubs.,3,"[3, 0, 0]",,False,filler,,,1,"[11, 7, 4]",1,"[1, 9, 2]",5776,3 + 7 = ?
,"[0, 1]",exh-only,,0,"[0, 0, 0]",0,True,"[1, 0]",0,True,undefined,2751,1,14.940916666666666,"[5, 2, 7]",1,There is only a note.,There is a circle.,2,"[0, 0, 0]",,True,response,,,2,"[8, 4, 6]",1,"[7, 6, 5]",8408,There is only a square.
,"[0, 1]",exh-only,,0,"[0, 0, 0]",1,True,"[1, 0]",0,True,undefined,2223,1,14.940916666666666,"[0, 1, 9]",1,There is a note.,There is a spade.,0,"[0, 0, 0]",,True,filler,,,2,"[8, 3, 0]",1,"[3, 2, 4]",8568,There is a diamond.
,"[1, 0]",exh-only,,1,"[0, 0, 0]",1,True,"[0, 1]",1,True,undefined,2390,0,14.940916666666666,"[8, 1, 3]",0,There are only four ticks.,There are four stars.,2,"[0, 0, 0]",,True,response,,,1,"[2, 0, 9]",1,"[6, 0, 8]",6783,There are only four notes.
,"[1, 0]",exh-only,,0,"[4, 0, 0]",1,True,"[1, 0]",0,False,undefined,1807,1,14.940916666666666,"[9, 5, 4]",0,1 + 0 = ?,There are four spades.,3,"[4, 0, 0]",,False,filler,,,1,"[1, 1, 0]",1,"[3, 1, 6]",5152,5 + 4 = ?
,"[0, 1]",exh-only,,0,"[7, 0, 0]",0,True,"[1, 0]",0,True,undefined,3087,1,14.940916666666666,"[7, 6, 1]",1,5 + 9 = ?,There are four circles.,3,"[6, 0, 0]",,True,response,,,1,"[14, 5, 9]",1,"[7, 0, 4]",6624,6 + 1 = ?
,"[0, 1]",exh-only,,1,"[0, 0, 0]",1,True,"[0, 1]",1,True,undefined,2103,1,14.940916666666666,"[3, 4, 1]",1,There are only four spades.,There are four stars.,2,"[0, 0, 0]",,True,filler,,,1,"[3, 5, 9]",1,"[6, 5, 8]",8184,There are only four spades.
,"[0, 1]",exh-only,,1,"[0, 0, 0]",1,True,"[0, 1]",1,True,undefined,3007,1,14.940916666666666,"[6, 3, 9]",1,Only some of the symbols are stars.,Some of the symbols are ticks.,2,"[0, 0, 0]",,True,filler,,,0,"[6, 3, 9]",1,"[2, 4, 0]",15984,Only some of the symbols are stars.
,"[0, 1]",exh-only,,1,"[0, 0, 0]",0,True,"[0, 1]",1,True,undefined,2911,1,14.940916666666666,"[6, 7, 8]",1,There is only a star.,There is a note.,2,"[0, 0, 0]",,True,response,,,2,"[6, 2, 5]",1,"[8, 4, 9]",9008,There is only a star.
,"[1, 0]",exh-only,,0,"[0, 0, 0]",0,True,"[1, 0]",0,True,undefined,2357,0,14.940916666666666,"[8, 0, 2]",0,There are four squares.,There are four circles.,1,"[0, 0, 0]",,True,response,,,1,"[5, 8, 0]",1,"[7, 2, 0]",6688,There are four notes.
,"[1, 0]",exh-only,,1,"[0, 0, 0]",1,False,"[0, 1]",0,False,undefined,5872,1,14.940916666666666,"[7, 3, 4]",0,There is a circle.,There is a club.,1,"[0, 0, 0]",,False,response,,,2,"[7, 6, 0]",1,"[1, 8, 3]",11464,There is a circle.
,"[0, 1]",exh-only,,1,"[0, 0, 0]",1,True,"[0, 1]",1,True,undefined,2992,1,14.940916666666666,"[4, 5, 7]",1,Only some of the symbols are triangles.,Some of the symbols are circles.,2,"[0, 0, 0]",,True,filler,,,0,"[9, 5, 6]",1,"[7, 9, 5]",8752,Only some of the symbols are hearts.
,"[1, 0]",exh-only,,1,"[0, 0, 0]",0,True,"[0, 1]",1,True,undefined,3167,0,14.940916666666666,"[3, 4, 7]",0,There are four spades.,There are four circles.,0,"[0, 0, 0]",,True,response,,,1,"[3, 9, 4]",1,"[7, 6, 3]",14264,There are four spades.
,"[0, 1]",exh-only,,1,"[0, 0, 0]",1,True,"[0, 1]",1,True,undefined,4588,1,14.940916666666666,"[5, 8, 7]",1,There is only a club.,There is a spade.,2,"[0, 0, 0]",,True,filler,,,2,"[1, 8, 4]",1,"[3, 7, 4]",9552,There is only a square.
,"[1, 0]",exh-only,,0,"[0, 0, 0]",1,True,"[1, 0]",0,True,undefined,2662,0,14.940916666666666,"[2, 7, 0]",0,There are four circles.,There are four clubs.,0,"[0, 0, 0]",,True,filler,,,1,"[7, 0, 4]",1,"[1, 8, 9]",7601,There are four ticks.
,"[1, 0]",exh-only,,0,"[4, 0, 0]",1,True,"[1, 0]",0,False,undefined,2911,1,14.940916666666666,"[11, 9, 2]",0,2 + 1 = ?,Some of the symbols are spades.,3,"[6, 0, 0]",,False,filler,,,0,"[3, 2, 1]",1,"[3, 2, 1]",9238,9 + 2 = ?
,"[0, 1]",exh-only,,1,"[0, 0, 0]",0,False,"[0, 1]",0,False,undefined,3079,0,14.940916666666666,"[3, 5, 1]",1,There is a circle.,There is a spade.,1,"[0, 0, 0]",,False,response,,,2,"[7, 9, 6]",1,"[3, 6, 8]",7168,There is a spade.
,"[1, 0]",exh-only,,0,"[0, 0, 0]",0,True,"[1, 0]",0,True,undefined,2503,0,14.940916666666666,"[3, 4, 9]",0,There are four ticks.,There are four spades.,1,"[0, 0, 0]",,True,response,,,1,"[2, 1, 3]",1,"[3, 0, 9]",6136,There are four spades.
,"[1, 0]",exh-only,,0,"[0, 0, 0]",0,True,"[1, 0]",0,True,undefined,1800,0,14.940916666666666,"[8, 3, 1]",0,There are only four notes.,There are four clubs.,2,"[0, 0, 0]",,True,response,,,1,"[8, 4, 6]",1,"[1, 8, 4]",5825,There are only four notes.
,"[0, 1]",exh-only,,0,"[0, 0, 0]",1,True,"[1, 0]",0,True,undefined,2519,1,14.940916666666666,"[3, 9, 1]",1,There is a circle.,There is a spade.,0,"[0, 0, 0]",,True,filler,,,2,"[7, 4, 1]",1,"[3, 8, 5]",7344,There is a spade.
,"[0, 1]",exh-only,,0,"[0, 0, 0]",1,True,"[1, 0]",0,True,undefined,2695,1,14.940916666666666,"[9, 4, 5]",1,Only some of the symbols are triangles.,Some of the symbols are stars.,2,"[0, 0, 0]",,True,filler,,,0,"[9, 5, 0]",1,"[6, 1, 8]",9231,Only some of the symbols are triangles.
,"[0, 1]",exh-only,,0,"[0, 0, 0]",0,True,"[1, 0]",0,True,undefined,2119,1,14.940916666666666,"[2, 3, 1]",1,Some of the symbols are circles.,Some of the symbols are clubs.,0,"[0, 0, 0]",,True,response,,,0,"[7, 0, 3]",1,"[1, 8, 3]",8241,Some of the symbols are ticks.
,"[0, 1]",exh-only,,0,"[0, 0, 0]",1,False,"[1, 0]",1,False,undefined,3302,0,14.940916666666666,"[6, 1, 2]",1,There is a triangle.,There is a heart.,1,"[0, 0, 0]",,False,filler,,,2,"[9, 7, 3]",1,"[4, 0, 3]",7223,There is a star.
,"[0, 1]",exh-only,,0,"[9, 0, 0]",0,False,"[1, 0]",1,False,undefined,2637,0,14.940916666666666,"[5, 0, 5]",1,8 + 8 = ?,There is a diamond.,3,"[6, 0, 0]",,False,response,,,2,"[16, 8, 8]",1,"[0, 5, 8]",7328,0 + 5 = ?
,"[0, 1]",exh-only,,1,"[0, 0, 0]",1,True,"[0, 1]",1,True,undefined,2095,1,14.940916666666666,"[1, 2, 5]",1,There are only four triangles.,There are four circles.,2,"[0, 0, 0]",,True,filler,,,1,"[9, 2, 1]",1,"[7, 3, 2]",5936,There are only four clubs.
,"[1, 0]",exh-only,,0,"[7, 0, 0]",0,True,"[1, 0]",0,False,undefined,2751,1,14.940916666666666,"[8, 4, 4]",0,9 + 0 = ?,There are four triangles.,3,"[0, 0, 0]",,False,response,,,1,"[9, 9, 0]",1,"[9, 7, 5]",7464,4 + 4 = ?
,"[0, 1]",exh-only,,1,"[0, 0, 0]",0,True,"[0, 1]",1,True,undefined,2327,1,14.940916666666666,"[9, 4, 8]",1,There is a triangle.,There is a tick.,0,"[0, 0, 0]",,True,response,,,2,"[9, 4, 0]",1,"[2, 8, 1]",6792,There is a triangle.
,"[1, 0]",exh-only,,0,"[0, 0, 0]",0,True,"[1, 0]",0,True,undefined,2215,0,14.940916666666666,"[4, 0, 5]",0,Only some of the symbols are stars.,Some of the symbols are circles.,2,"[0, 0, 0]",,True,response,,,0,"[6, 2, 3]",1,"[7, 3, 8]",7512,Only some of the symbols are hearts.
,"[1, 0]",exh-only,,0,"[0, 0, 0]",0,True,"[1, 0]",0,True,undefined,2183,0,14.940916666666666,"[4, 7, 3]",0,Only some of the symbols are circles.,Some of the symbols are circles.,2,"[0, 0, 0]",,True,response,,,0,"[7, 1, 4]",1,"[7, 6, 9]",7088,Only some of the symbols are hearts.
,"[1, 0]",exh-only,,1,"[0, 0, 0]",1,True,"[0, 1]",1,True,undefined,2471,0,14.940916666666666,"[1, 8, 4]",0,There is only a circle.,There is a note.,2,"[0, 0, 0]",,True,filler,,,2,"[7, 8, 9]",1,"[8, 7, 1]",6360,There is only a club.
,"[1, 0]",exh-only,,0,"[0, 0, 0]",0,True,"[1, 0]",0,True,undefined,2703,0,14.940916666666666,"[9, 0, 1]",0,There are only four stars.,There are four diamonds.,2,"[0, 0, 0]",,True,response,,,1,"[6, 7, 4]",1,"[0, 7, 9]",7416,There are only four triangles.
,"[0, 1]",exh-only,,0,"[0, 0, 0]",1,False,"[1, 0]",1,False,undefined,1775,0,14.940916666666666,"[4, 3, 7]",1,There is a heart.,There is a tick.,1,"[0, 0, 0]",,False,filler,,,2,"[4, 3, 2]",1,"[2, 1, 0]",6509,There is a heart.
,"[0, 1]",exh-only,,0,"[0, 0, 0]",1,True,"[1, 0]",0,True,undefined,1599,1,14.940916666666666,"[2, 8, 5]",1,There are only four clubs.,There are four squares.,2,"[0, 0, 0]",,True,filler,,,1,"[1, 2, 6]",1,"[5, 8, 4]",5907,There are only four ticks.
,"[0, 1]",exh-only,,0,"[0, 0, 0]",1,False,"[1, 0]",1,False,undefined,2480,0,14.940916666666666,"[6, 8, 0]",1,There is a note.,There is a triangle.,1,"[0, 0, 0]",,False,filler,,,2,"[8, 5, 7]",1,"[9, 4, 1]",7705,There is a star.
,"[0, 1]",exh-only,,0,"[0, 0, 0]",1,True,"[1, 0]",0,True,undefined,2222,1,14.940916666666666,"[0, 5, 4]",1,Some of the symbols are squares.,Some of the symbols are stars.,0,"[0, 0, 0]",,True,filler,,,0,"[5, 6, 0]",1,"[6, 8, 5]",11967,Some of the symbols are diamonds.
,"[1, 0]",exh-only,,0,"[2, 0, 0]",0,True,"[1, 0]",0,False,undefined,1952,1,14.940916666666666,"[4, 4, 0]",0,0 + 7 = ?,There is a star.,3,"[9, 0, 0]",,False,response,,,2,"[7, 0, 7]",1,"[6, 9, 3]",7041,4 + 0 = ?
,"[0, 1]",exh-only,,0,"[0, 0, 0]",1,False,"[1, 0]",1,False,undefined,3344,0,14.940916666666666,"[6, 9, 0]",1,There is a spade.,There is a club.,1,"[0, 0, 0]",,False,filler,,,2,"[3, 8, 4]",1,"[1, 8, 0]",7544,There is a star.
,"[1, 0]",exh-only,,1,"[0, 0, 0]",0,True,"[0, 1]",1,True,undefined,2688,0,14.940916666666666,"[1, 2, 4]",0,Only some of the symbols are squares.,Some of the symbols are notes.,2,"[0, 0, 0]",,True,response,,,0,"[5, 0, 9]",1,"[8, 0, 4]",10320,Only some of the symbols are clubs.
,"[0, 1]",exh-only,,1,"[0, 0, 0]",0,False,"[0, 1]",0,False,undefined,2255,1,14.940916666666666,"[4, 5, 9]",1,Some of the symbols are ticks.,Some of the symbols are ticks.,1,"[0, 0, 0]",,True,response,,,0,"[2, 1, 5]",1,"[2, 5, 9]",9831,Some of the symbols are hearts.
,"[0, 1]",exh-only,,1,"[0, 0, 0]",0,True,"[0, 1]",1,True,undefined,3073,1,14.940916666666666,"[3, 5, 6]",1,There is a note.,There is a spade.,0,"[0, 0, 0]",,True,response,,,2,"[8, 0, 2]",1,"[3, 1, 2]",7946,There is a spade.
,"[0, 1]",exh-only,,1,"[0, 0, 0]",1,True,"[0, 1]",1,True,undefined,2703,1,14.940916666666666,"[3, 9, 6]",1,Some of the symbols are circles.,Some of the symbols are diamonds.,0,"[0, 0, 0]",,True,filler,,,0,"[7, 2, 0]",1,"[0, 4, 9]",8070,Some of the symbols are spades.
,"[0, 1]",exh-only,,0,"[9, 0, 0]",1,True,"[1, 0]",0,True,undefined,2359,1,14.940916666666666,"[6, 3, 3]",1,8 + 4 = ?,There is a square.,3,"[7, 0, 0]",,True,filler,,,2,"[12, 8, 4]",1,"[5, 9, 4]",7624,3 + 3 = ?
,"[0, 1]",exh-only,,0,"[1, 0, 0]",0,True,"[1, 0]",0,True,undefined,2223,1,14.940916666666666,"[11, 2, 9]",1,7 + 2 = ?,There is a star.,3,"[2, 0, 0]",,True,response,,,2,"[9, 7, 2]",1,"[6, 7, 1]",5768,2 + 9 = ?
,"[0, 1]",exh-only,,1,"[9, 0, 0]",1,True,"[0, 1]",1,False,undefined,1910,0,14.940916666666666,"[11, 8, 3]",1,2 + 4 = ?,There is a star.,3,"[8, 0, 0]",,False,filler,,,2,"[6, 2, 4]",1,"[6, 5, 2]",5711,8 + 3 = ?
,"[1, 0]",exh-only,,1,"[0, 0, 0]",1,False,"[0, 1]",0,False,undefined,2232,1,14.940916666666666,"[2, 4, 7]",0,There are four hearts.,There are four spades.,1,"[0, 0, 0]",,False,filler,,,1,"[4, 8, 3]",1,"[3, 9, 2]",9625,There are four ticks.
Patricia,,,,,,,,,,,undefined,,,7.87365,,,,,,,1,,,bot_check,"[0, 'patricia']",,,2,,,
,"[0, 1]",exh-only,,0,"[0, 0, 0]",0,True,"[1, 0]",0,True,undefined,1804,1,7.87365,"[6, 9, 8]",1,Some of the symbols are diamonds.,Some of the symbols are spades.,1,"[0, 0, 0]",,True,response,,,0,"[0, 8, 1]",2,"[3, 1, 8]",6380,Some of the symbols are stars.
,"[1, 0]",exh-only,,0,"[0, 0, 0]",0,True,"[1, 0]",0,True,undefined,2191,0,7.87365,"[9, 2, 6]",0,There are only four diamonds.,There are four ticks.,2,"[0, 0, 0]",,True,response,,,1,"[0, 7, 5]",2,"[2, 9, 3]",4836,There are only four triangles.
,"[1, 0]",exh-only,,1,"[0, 0, 0]",0,True,"[0, 1]",1,True,undefined,1117,0,7.87365,"[2, 1, 5]",0,There is a heart.,There is a square.,0,"[0, 0, 0]",,True,response,,,2,"[4, 0, 3]",2,"[5, 0, 9]",4339,There is a tick.
,"[0, 1]",exh-only,,0,"[0, 0, 0]",0,True,"[1, 0]",0,True,undefined,1484,1,7.87365,"[5, 0, 9]",1,There are four spades.,There are four notes.,1,"[0, 0, 0]",,True,response,,,1,"[3, 6, 8]",2,"[8, 2, 6]",4178,There are four squares.
,"[1, 0]",exh-only,,0,"[0, 0, 0]",0,True,"[1, 0]",0,True,undefined,1125,0,7.87365,"[8, 2, 3]",0,Some of the symbols are triangles.,Some of the symbols are squares.,0,"[0, 0, 0]",,True,response,,,0,"[9, 3, 2]",2,"[5, 0, 6]",4814,Some of the symbols are notes.
,"[0, 1]",exh-only,,0,"[0, 0, 0]",0,False,"[1, 0]",1,False,undefined,2029,1,7.87365,"[9, 5, 6]",1,Only some of the symbols are hearts.,Some of the symbols are squares.,2,"[0, 0, 0]",,True,response,,,0,"[4, 7, 1]",2,"[5, 3, 2]",7745,Only some of the symbols are triangles.
,"[0, 1]",exh-only,,0,"[0, 0, 0]",0,True,"[1, 0]",0,True,undefined,1570,1,7.87365,"[0, 8, 5]",1,There is only a spade.,There is a spade.,2,"[0, 0, 0]",,True,response,,,2,"[3, 8, 2]",2,"[3, 7, 9]",5662,There is only a diamond.
,"[1, 0]",exh-only,,1,"[0, 0, 0]",0,False,"[0, 1]",0,False,undefined,1210,0,7.87365,"[2, 6, 1]",0,There is a triangle.,There is a square.,1,"[0, 0, 0]",,True,response,,,2,"[9, 4, 0]",2,"[5, 2, 6]",3644,There is a tick.
,"[0, 1]",exh-only,,1,"[0, 0, 0]",1,True,"[0, 1]",1,True,undefined,2195,1,7.87365,"[0, 5, 3]",1,There is only a triangle.,There is a star.,2,"[0, 0, 0]",,True,filler,,,2,"[9, 2, 8]",2,"[6, 1, 3]",4740,There is only a diamond.
,"[1, 0]",exh-only,,1,"[3, 0, 0]",0,True,"[0, 1]",1,True,undefined,1653,0,7.87365,"[10, 7, 3]",0,7 + 2 = ?,Some of the symbols are hearts.,3,"[4, 0, 0]",,True,filler,,,0,"[9, 7, 2]",2,"[4, 6, 3]",4837,7 + 3 = ?
,"[0, 1]",exh-only,,0,"[9, 0, 0]",0,True,"[1, 0]",0,True,undefined,1556,1,7.87365,"[13, 6, 7]",1,6 + 0 = ?,There is a heart.,3,"[9, 0, 0]",,True,response,,,2,"[6, 6, 0]",2,"[4, 8, 0]",4175,6 + 7 = ?
,"[1, 0]",exh-only,,0,"[0, 0, 0]",1,True,"[1, 0]",0,True,undefined,1117,0,7.87365,"[5, 4, 1]",0,There are only four squares.,There are four diamonds.,2,"[0, 0, 0]",,True,response,,,1,"[5, 8, 2]",2,"[0, 3, 6]",3335,There are only four squares.
,"[1, 0]",exh-only,,1,"[3, 0, 0]",1,True,"[0, 1]",1,True,undefined,1363,0,7.87365,"[15, 9, 6]",0,8 + 9 = ?,There are four ticks.,3,"[7, 0, 0]",,True,filler,,,1,"[17, 8, 9]",2,"[2, 8, 3]",3840,9 + 6 = ?
,"[0, 1]",exh-only,,1,"[0, 0, 0]",1,True,"[0, 1]",1,True,undefined,1284,1,7.87365,"[9, 2, 6]",1,There is a star.,There is a star.,0,"[0, 0, 0]",,True,filler,,,2,"[6, 5, 1]",2,"[6, 7, 1]",3919,There is a triangle.
,"[0, 1]",exh-only,,0,"[0, 0, 0]",1,True,"[1, 0]",0,True,undefined,1148,1,7.87365,"[5, 6, 8]",1,There are four ticks.,There are four spades.,1,"[0, 0, 0]",,True,filler,,,1,"[2, 8, 5]",2,"[3, 0, 6]",3295,There are four squares.
,"[0, 1]",exh-only,,1,"[0, 0, 0]",0,True,"[0, 1]",1,True,undefined,1076,1,7.87365,"[7, 3, 4]",1,There is a circle.,There is a star.,1,"[0, 0, 0]",,True,response,,,2,"[7, 5, 1]",2,"[6, 7, 1]",3368,There is a circle.
,"[1, 0]",exh-only,,0,"[0, 0, 0]",1,True,"[1, 0]",0,True,undefined,1116,0,7.87365,"[7, 1, 5]",0,There are four notes.,There are four squares.,0,"[0, 0, 0]",,True,filler,,,1,"[8, 1, 5]",2,"[5, 7, 9]",4103,There are four circles.
,"[0, 1]",exh-only,,1,"[3, 0, 0]",0,True,"[0, 1]",1,False,undefined,1018,0,7.87365,"[12, 9, 3]",1,6 + 2 = ?,There are four stars.,3,"[8, 0, 0]",,False,response,,,1,"[8, 6, 2]",2,"[6, 8, 5]",3180,9 + 3 = ?
,"[1, 0]",exh-only,,0,"[0, 0, 0]",0,True,"[1, 0]",0,False,undefined,1228,1,7.87365,"[10, 2, 8]",0,3 + 0 = ?,There is a spade.,3,"[7, 0, 0]",,False,response,,,2,"[3, 3, 0]",2,"[3, 4, 5]",3996,2 + 8 = ?
,"[1, 0]",exh-only,,1,"[0, 0, 0]",1,True,"[0, 1]",1,True,undefined,1138,0,7.87365,"[2, 6, 5]",0,There are four spades.,There are four clubs.,1,"[0, 0, 0]",,True,filler,,,1,"[3, 1, 5]",2,"[1, 6, 4]",3400,There are four ticks.
,"[1, 0]",exh-only,,1,"[2, 0, 0]",0,True,"[0, 1]",1,True,undefined,1365,0,7.87365,"[9, 1, 8]",0,8 + 7 = ?,Some of the symbols are stars.,3,"[4, 0, 0]",,True,response,,,0,"[15, 8, 7]",2,"[6, 7, 3]",3415,1 + 8 = ?
,"[1, 0]",exh-only,,1,"[0, 0, 0]",1,True,"[0, 1]",1,True,undefined,1132,0,7.87365,"[0, 8, 2]",0,Only some of the symbols are diamonds.,Some of the symbols are stars.,2,"[0, 0, 0]",,True,filler,,,0,"[0, 7, 1]",2,"[6, 5, 3]",4672,Only some of the symbols are diamonds.
,"[0, 1]",exh-only,,1,"[0, 0, 0]",0,True,"[0, 1]",1,True,undefined,1578,1,7.87365,"[0, 2, 8]",1,There are only four clubs.,There are four ticks.,2,"[0, 0, 0]",,True,response,,,1,"[1, 8, 3]",2,"[2, 6, 3]",3920,There are only four diamonds.
,"[1, 0]",exh-only,,0,"[0, 0, 0]",1,True,"[1, 0]",0,True,undefined,1109,0,7.87365,"[1, 8, 9]",0,There is a heart.,There is a note.,1,"[0, 0, 0]",,True,filler,,,2,"[4, 3, 6]",2,"[8, 7, 4]",3256,There is a club.
,"[0, 1]",exh-only,,1,"[0, 0, 0]",1,True,"[0, 1]",1,True,undefined,1234,1,7.87365,"[4, 1, 7]",1,There are four triangles.,There are four notes.,0,"[0, 0, 0]",,True,filler,,,1,"[9, 8, 6]",2,"[8, 6, 5]",3479,There are four hearts.
,"[0, 1]",exh-only,,1,"[0, 0, 0]",1,True,"[0, 1]",1,True,undefined,1494,1,7.87365,"[8, 6, 2]",1,Some of the symbols are ticks.,Some of the symbols are ticks.,1,"[0, 0, 0]",,True,response,,,0,"[2, 9, 7]",2,"[2, 3, 6]",4769,Some of the symbols are notes.
,"[0, 1]",exh-only,,0,"[0, 0, 0]",1,True,"[1, 0]",0,True,undefined,1394,1,7.87365,"[1, 7, 6]",1,There is a tick.,There is a triangle.,0,"[0, 0, 0]",,True,filler,,,2,"[2, 7, 1]",2,"[9, 2, 4]",4879,There is a club.
,"[1, 0]",exh-only,,0,"[3, 0, 0]",1,True,"[1, 0]",0,False,undefined,1133,1,7.87365,"[10, 5, 5]",0,6 + 6 = ?,There is a star.,3,"[7, 0, 0]",,False,filler,,,2,"[12, 6, 6]",2,"[6, 1, 7]",3576,5 + 5 = ?
,"[1, 0]",exh-only,,0,"[8, 0, 0]",1,True,"[1, 0]",0,False,undefined,980,1,7.87365,"[6, 3, 3]",0,5 + 8 = ?,There are four stars.,3,"[2, 0, 0]",,False,response,,,1,"[13, 5, 8]",2,"[6, 3, 4]",3113,3 + 3 = ?
,"[1, 0]",exh-only,,1,"[0, 0, 0]",1,True,"[0, 1]",1,True,undefined,1718,0,7.87365,"[0, 1, 6]",0,There is a circle.,There is a spade.,1,"[0, 0, 0]",,True,response,,,2,"[7, 1, 3]",2,"[3, 9, 7]",3768,There is a diamond.
,"[0, 1]",exh-only,,1,"[2, 0, 0]",0,True,"[0, 1]",1,False,undefined,3260,0,7.87365,"[9, 7, 2]",1,7 + 4 = ?,There is a spade.,3,"[8, 0, 0]",,False,response,,,2,"[11, 7, 4]",2,"[3, 4, 0]",6942,7 + 2 = ?
,"[0, 1]",exh-only,,0,"[0, 0, 0]",1,True,"[1, 0]",0,True,undefined,1721,1,7.87365,"[3, 0, 4]",1,Only some of the symbols are squares.,Some of the symbols are stars.,2,"[0, 0, 0]",,True,response,,,0,"[5, 1, 7]",2,"[6, 7, 2]",5677,Only some of the symbols are spades.
,"[0, 1]",exh-only,,0,"[0, 0, 0]",0,True,"[1, 0]",0,True,undefined,1400,1,7.87365,"[0, 2, 7]",1,There is a heart.,There is a club.,0,"[0, 0, 0]",,True,response,,,2,"[4, 3, 5]",2,"[1, 0, 5]",4518,There is a diamond.
,"[0, 1]",exh-only,,1,"[9, 0, 0]",1,True,"[0, 1]",1,False,undefined,1248,0,7.87365,"[16, 8, 8]",1,8 + 2 = ?,There is a star.,3,"[4, 0, 0]",,False,filler,,,2,"[10, 8, 2]",2,"[6, 0, 8]",3718,8 + 8 = ?
,"[0, 1]",exh-only,,0,"[5, 0, 0]",1,True,"[1, 0]",0,True,undefined,1142,1,7.87365,"[7, 0, 7]",1,5 + 4 = ?,There are four ticks.,3,"[1, 0, 0]",,True,filler,,,1,"[9, 5, 4]",2,"[2, 9, 4]",3255,0 + 7 = ?
,"[1, 0]",exh-only,,0,"[0, 0, 0]",1,True,"[1, 0]",0,True,undefined,1527,0,7.87365,"[8, 0, 3]",0,Only some of the symbols are clubs.,Some of the symbols are diamonds.,2,"[0, 0, 0]",,True,filler,,,0,"[1, 5, 4]",2,"[0, 5, 8]",4455,Only some of the symbols are notes.
,"[0, 1]",exh-only,,0,"[0, 0, 0]",1,True,"[1, 0]",0,True,undefined,1189,1,7.87365,"[4, 9, 7]",1,Some of the symbols are hearts.,Some of the symbols are notes.,1,"[0, 0, 0]",,True,filler,,,0,"[4, 6, 8]",2,"[8, 3, 1]",4552,Some of the symbols are hearts.
,"[0, 1]",exh-only,,1,"[0, 0, 0]",1,True,"[0, 1]",1,True,undefined,1096,1,7.87365,"[0, 5, 8]",1,There are only four notes.,There are four stars.,2,"[0, 0, 0]",,True,filler,,,1,"[8, 0, 3]",2,"[6, 2, 8]",3647,There are only four diamonds.
,"[1, 0]",exh-only,,1,"[0, 0, 0]",1,True,"[0, 1]",1,True,undefined,1310,0,7.87365,"[3, 9, 4]",0,There are four spades.,There are four notes.,1,"[0, 0, 0]",,True,filler,,,1,"[3, 7, 9]",2,"[8, 7, 0]",3631,There are four spades.
,"[1, 0]",exh-only,,0,"[0, 0, 0]",1,True,"[1, 0]",0,False,undefined,1106,1,7.87365,"[10, 8, 2]",0,1 + 1 = ?,There is a tick.,3,"[1, 0, 0]",,False,filler,,,2,"[2, 1, 1]",2,"[2, 6, 3]",3535,8 + 2 = ?
,"[1, 0]",exh-only,,1,"[0, 0, 0]",1,True,"[0, 1]",1,False,undefined,4732,1,7.87365,"[0, 5, 2]",0,Some of the symbols are stars.,Some of the symbols are spades.,0,"[0, 0, 0]",,False,response,,,0,"[6, 1, 3]",2,"[3, 8, 5]",8544,Some of the symbols are diamonds.
,"[1, 0]",exh-only,,0,"[0, 0, 0]",1,True,"[1, 0]",0,True,undefined,1481,0,7.87365,"[2, 0, 5]",0,Only some of the symbols are triangles.,Some of the symbols are spades.,2,"[0, 0, 0]",,True,filler,,,0,"[9, 0, 4]",2,"[3, 9, 5]",5803,Only some of the symbols are ticks.
,"[0, 1]",exh-only,,1,"[0, 0, 0]",0,True,"[0, 1]",1,True,undefined,1351,1,7.87365,"[2, 8, 4]",1,There are four triangles.,There are four hearts.,0,"[0, 0, 0]",,True,response,,,1,"[9, 7, 5]",2,"[4, 0, 2]",3551,There are four ticks.
,"[1, 0]",exh-only,,1,"[0, 0, 0]",0,True,"[0, 1]",1,True,undefined,1140,0,7.87365,"[1, 0, 3]",0,Some of the symbols are notes.,Some of the symbols are squares.,0,"[0, 0, 0]",,True,response,,,0,"[8, 4, 0]",2,"[5, 9, 2]",6006,Some of the symbols are clubs.
,"[1, 0]",exh-only,,0,"[0, 0, 0]",1,True,"[1, 0]",0,True,undefined,1469,0,7.87365,"[2, 5, 9]",0,Some of the symbols are diamonds.,Some of the symbols are clubs.,0,"[0, 0, 0]",,True,filler,,,0,"[0, 3, 1]",2,"[1, 2, 0]",5383,Some of the symbols are ticks.
,"[1, 0]",exh-only,,0,"[0, 0, 0]",0,True,"[1, 0]",0,True,undefined,1067,0,7.87365,"[3, 1, 2]",0,There is only a star.,There is a club.,2,"[0, 0, 0]",,True,response,,,2,"[6, 8, 0]",2,"[1, 3, 4]",3601,There is only a spade.
,"[0, 1]",exh-only,,1,"[3, 0, 0]",1,True,"[0, 1]",1,False,undefined,1554,0,7.87365,"[8, 8, 0]",1,3 + 2 = ?,Some of the symbols are triangles.,3,"[5, 0, 0]",,False,response,,,0,"[5, 3, 2]",2,"[9, 1, 5]",4183,8 + 0 = ?
,"[1, 0]",exh-only,,1,"[0, 0, 0]",1,True,"[0, 1]",1,True,undefined,1403,0,7.87365,"[4, 1, 9]",0,There are only four clubs.,There are four hearts.,2,"[0, 0, 0]",,True,filler,,,1,"[1, 7, 6]",2,"[4, 7, 6]",3969,There are only four hearts.
,"[1, 0]",exh-only,,0,"[0, 0, 0]",1,True,"[1, 0]",0,True,undefined,1332,0,7.87365,"[3, 9, 7]",0,Some of the symbols are circles.,Some of the symbols are hearts.,1,"[0, 0, 0]",,True,response,,,0,"[7, 5, 2]",2,"[4, 6, 7]",4815,Some of the symbols are spades.
,"[0, 1]",exh-only,,0,"[0, 0, 0]",1,True,"[1, 0]",0,True,undefined,1395,1,7.87365,"[4, 8, 6]",1,There is only a circle.,There is a spade.,2,"[0, 0, 0]",,True,filler,,,2,"[7, 6, 0]",2,"[3, 7, 0]",3871,There is only a heart.
,"[0, 1]",exh-only,,0,"[0, 0, 0]",1,True,"[1, 0]",0,True,undefined,1572,1,7.87365,"[4, 6, 2]",1,There are four squares.,There are four hearts.,0,"[0, 0, 0]",,True,response,,,1,"[5, 8, 6]",2,"[4, 5, 0]",4120,There are four hearts.
,"[1, 0]",exh-only,,0,"[0, 0, 0]",1,True,"[1, 0]",0,True,undefined,1293,0,7.87365,"[7, 4, 5]",0,Some of the symbols are triangles.,Some of the symbols are circles.,1,"[0, 0, 0]",,True,response,,,0,"[9, 6, 3]",2,"[7, 0, 4]",4057,Some of the symbols are circles.
,"[1, 0]",exh-only,,1,"[0, 0, 0]",0,True,"[0, 1]",1,True,undefined,1135,0,7.87365,"[3, 1, 9]",0,There is a spade.,There is a note.,0,"[0, 0, 0]",,True,response,,,2,"[3, 4, 9]",2,"[8, 9, 0]",5113,There is a spade.
,"[0, 1]",exh-only,,0,"[0, 0, 0]",1,False,"[1, 0]",1,False,undefined,1746,1,7.87365,"[7, 5, 3]",1,Some of the symbols are circles.,Some of the symbols are triangles.,1,"[0, 0, 0]",,True,filler,,,0,"[7, 8, 6]",2,"[9, 5, 3]",4551,Some of the symbols are circles.
,"[1, 0]",exh-only,,0,"[0, 0, 0]",1,True,"[1, 0]",0,True,undefined,1413,0,7.87365,"[5, 0, 1]",0,Some of the symbols are notes.,Some of the symbols are ticks.,0,"[0, 0, 0]",,True,response,,,0,"[8, 5, 4]",2,"[2, 1, 4]",4285,Some of the symbols are squares.
,"[0, 1]",exh-only,,1,"[1, 0, 0]",1,False,"[0, 1]",0,False,undefined,1097,1,7.87365,"[10, 8, 2]",1,2 + 6 = ?,There are four notes.,3,"[1, 0, 0]",,True,filler,,,1,"[8, 2, 6]",2,"[8, 5, 9]",3476,8 + 2 = ?
,"[0, 1]",exh-only,,0,"[0, 0, 0]",0,True,"[1, 0]",0,True,undefined,1327,1,7.87365,"[7, 2, 4]",1,There is a star.,There is a square.,1,"[0, 0, 0]",,True,response,,,2,"[6, 1, 9]",2,"[5, 6, 7]",3796,There is a circle.
,"[1, 0]",exh-only,,0,"[0, 0, 0]",1,True,"[1, 0]",0,True,undefined,1443,0,7.87365,"[8, 6, 9]",0,There is a heart.,There is a diamond.,0,"[0, 0, 0]",,True,filler,,,2,"[4, 3, 1]",2,"[0, 7, 2]",4056,There is a note.
,"[0, 1]",exh-only,,1,"[0, 0, 0]",0,True,"[0, 1]",1,True,undefined,2307,1,7.87365,"[4, 8, 5]",1,There is only a note.,There is a club.,2,"[0, 0, 0]",,True,response,,,2,"[8, 5, 2]",2,"[1, 0, 7]",4984,There is only a heart.
,"[0, 1]",exh-only,,0,"[0, 0, 0]",1,True,"[1, 0]",0,True,undefined,1616,1,7.87365,"[3, 1, 9]",1,Some of the symbols are stars.,Some of the symbols are stars.,0,"[0, 0, 0]",,True,filler,,,0,"[6, 5, 7]",2,"[6, 3, 5]",5594,Some of the symbols are spades.
,"[1, 0]",exh-only,,1,"[0, 0, 0]",1,True,"[0, 1]",1,True,undefined,1366,0,7.87365,"[6, 1, 0]",0,There is a club.,There is a heart.,1,"[0, 0, 0]",,True,filler,,,2,"[1, 7, 3]",2,"[4, 0, 2]",5359,There is a star.
,"[0, 1]",exh-only,,1,"[0, 0, 0]",1,True,"[0, 1]",1,True,undefined,1721,1,7.87365,"[1, 3, 5]",1,There are only four hearts.,There are four triangles.,2,"[0, 0, 0]",,True,filler,,,1,"[4, 6, 3]",2,"[9, 5, 4]",4176,There are only four clubs.
,"[0, 1]",exh-only,,1,"[0, 0, 0]",1,True,"[0, 1]",1,True,undefined,1536,1,7.87365,"[1, 8, 0]",1,There is a diamond.,There is a circle.,0,"[0, 0, 0]",,True,filler,,,2,"[0, 9, 1]",2,"[7, 8, 6]",4785,There is a club.
,"[0, 1]",exh-only,,1,"[5, 0, 0]",0,False,"[0, 1]",0,False,undefined,1509,1,7.87365,"[7, 6, 1]",1,2 + 2 = ?,Some of the symbols are stars.,3,"[9, 0, 0]",,True,response,,,0,"[4, 2, 2]",2,"[6, 0, 5]",4119,6 + 1 = ?
,"[0, 1]",exh-only,,0,"[0, 0, 0]",0,True,"[1, 0]",0,True,undefined,1228,1,7.87365,"[5, 3, 7]",1,There are four clubs.,There are four diamonds.,0,"[0, 0, 0]",,True,response,,,1,"[1, 6, 5]",2,"[0, 8, 4]",3296,There are four squares.
,"[1, 0]",exh-only,,1,"[0, 0, 0]",1,True,"[0, 1]",1,True,undefined,1795,0,7.87365,"[3, 9, 6]",0,There are four hearts.,There are four ticks.,1,"[0, 0, 0]",,True,response,,,1,"[4, 2, 0]",2,"[2, 9, 3]",3910,There are four spades.
,"[1, 0]",exh-only,,0,"[0, 0, 0]",1,True,"[1, 0]",0,True,undefined,1904,0,7.87365,"[0, 4, 7]",0,Only some of the symbols are triangles.,Some of the symbols are stars.,2,"[0, 0, 0]",,True,response,,,0,"[9, 1, 5]",2,"[6, 1, 4]",6553,Only some of the symbols are diamonds.
,"[0, 1]",exh-only,,1,"[0, 0, 0]",1,True,"[0, 1]",1,True,undefined,1624,1,7.87365,"[0, 9, 5]",1,Some of the symbols are triangles.,Some of the symbols are diamonds.,1,"[0, 0, 0]",,True,filler,,,0,"[9, 3, 7]",2,"[0, 4, 5]",4573,Some of the symbols are diamonds.
,"[0, 1]",exh-only,,1,"[0, 0, 0]",1,True,"[0, 1]",1,True,undefined,1501,1,7.87365,"[0, 2, 4]",1,There is only a heart.,There is a spade.,2,"[0, 0, 0]",,True,filler,,,2,"[4, 8, 0]",2,"[3, 5, 8]",3646,There is only a diamond.
,"[0, 1]",exh-only,,1,"[0, 0, 0]",1,True,"[0, 1]",1,True,undefined,3320,1,7.87365,"[9, 3, 0]",1,There are four hearts.,There are four triangles.,0,"[0, 0, 0]",,True,response,,,1,"[4, 7, 9]",2,"[9, 1, 6]",5645,There are four triangles.
,"[1, 0]",exh-only,,0,"[5, 0, 0]",1,True,"[1, 0]",0,False,undefined,1405,1,7.87365,"[2, 2, 0]",0,4 + 9 = ?,Some of the symbols are notes.,3,"[4, 0, 0]",,False,filler,,,0,"[13, 4, 9]",2,"[8, 4, 5]",4178,2 + 0 = ?
,"[1, 0]",exh-only,,1,"[0, 0, 0]",0,True,"[0, 1]",1,True,undefined,1690,0,7.87365,"[5, 4, 0]",0,There is a triangle.,There is a tick.,0,"[0, 0, 0]",,True,response,,,2,"[9, 3, 0]",2,"[2, 8, 7]",5029,There is a square.
,"[1, 0]",exh-only,,0,"[2, 0, 0]",1,True,"[1, 0]",0,False,undefined,1634,1,7.87365,"[10, 4, 6]",0,7 + 4 = ?,There are four circles.,3,"[7, 0, 0]",,False,response,,,1,"[11, 7, 4]",2,"[7, 6, 2]",4766,4 + 6 = ?
,"[1, 0]",exh-only,,1,"[0, 0, 0]",1,True,"[0, 1]",1,True,undefined,1601,0,7.87365,"[1, 0, 4]",0,There are four triangles.,There are four spades.,1,"[0, 0, 0]",,True,response,,,1,"[9, 3, 8]",2,"[3, 4, 2]",4003,There are four clubs.
,"[0, 1]",exh-only,,1,"[8, 0, 0]",0,True,"[0, 1]",1,False,undefined,1140,0,7.87365,"[10, 8, 2]",1,3 + 3 = ?,There is a circle.,3,"[8, 0, 0]",,False,response,,,2,"[6, 3, 3]",2,"[7, 2, 9]",3265,8 + 2 = ?
,"[0, 1]",exh-only,,0,"[0, 0, 0]",1,True,"[1, 0]",0,True,undefined,1334,1,7.87365,"[7, 2, 3]",1,There is a diamond.,There is a star.,1,"[0, 0, 0]",,True,filler,,,2,"[0, 8, 4]",2,"[6, 8, 4]",4021,There is a circle.
,"[0, 1]",exh-only,,1,"[0, 0, 0]",1,True,"[0, 1]",1,True,undefined,1933,1,7.87365,"[6, 4, 8]",1,There is only a triangle.,There is a spade.,2,"[0, 0, 0]",,True,filler,,,2,"[9, 8, 6]",2,"[3, 8, 4]",5649,There is only a star.
,"[0, 1]",exh-only,,1,"[8, 0, 0]",1,True,"[0, 1]",1,False,undefined,2683,0,7.87365,"[8, 1, 7]",1,3 + 0 = ?,Some of the symbols are squares.,3,"[0, 0, 0]",,False,response,,,0,"[3, 3, 0]",2,"[5, 0, 3]",4800,1 + 7 = ?
,"[1, 0]",exh-only,,1,"[0, 0, 0]",1,True,"[0, 1]",1,True,undefined,1421,0,7.87365,"[8, 3, 0]",0,There are only four ticks.,There are four triangles.,2,"[0, 0, 0]",,True,response,,,1,"[2, 8, 1]",2,"[9, 6, 0]",3895,There are only four notes.
,"[0, 1]",exh-only,,0,"[3, 0, 0]",1,True,"[1, 0]",0,True,undefined,1175,1,7.87365,"[7, 0, 7]",1,3 + 9 = ?,There are four triangles.,3,"[3, 0, 0]",,True,response,,,1,"[12, 3, 9]",2,"[9, 2, 7]",3496,0 + 7 = ?
,"[1, 0]",exh-only,,0,"[2, 0, 0]",1,True,"[1, 0]",0,False,undefined,1483,1,7.87365,"[9, 7, 2]",0,0 + 0 = ?,There is a note.,3,"[8, 0, 0]",,False,filler,,,2,"[0, 0, 0]",2,"[8, 3, 4]",5246,7 + 2 = ?
,"[1, 0]",exh-only,,0,"[0, 0, 0]",1,True,"[1, 0]",0,True,undefined,1307,0,7.87365,"[0, 9, 3]",0,Only some of the symbols are hearts.,Some of the symbols are diamonds.,2,"[0, 0, 0]",,True,response,,,0,"[4, 0, 3]",2,"[0, 3, 4]",5144,Only some of the symbols are diamonds.
,"[1, 0]",exh-only,,1,"[4, 0, 0]",1,True,"[0, 1]",1,True,undefined,1430,0,7.87365,"[10, 2, 8]",0,7 + 5 = ?,Some of the symbols are squares.,3,"[8, 0, 0]",,True,filler,,,0,"[12, 7, 5]",2,"[5, 3, 6]",3826,2 + 8 = ?
,"[1, 0]",exh-only,,1,"[0, 0, 0]",1,True,"[0, 1]",1,True,undefined,1498,0,7.87365,"[4, 2, 0]",0,There are four ticks.,There are four hearts.,0,"[0, 0, 0]",,True,filler,,,1,"[2, 9, 1]",2,"[4, 1, 3]",3677,There are four hearts.
,"[1, 0]",exh-only,,1,"[0, 0, 0]",1,True,"[0, 1]",1,True,undefined,1316,0,7.87365,"[9, 4, 3]",0,Some of the symbols are diamonds.,Some of the symbols are stars.,1,"[0, 0, 0]",,True,filler,,,0,"[0, 7, 6]",2,"[6, 8, 1]",4240,Some of the symbols are triangles.
,"[1, 0]",exh-only,,0,"[4, 0, 0]",1,False,"[1, 0]",1,False,undefined,1221,0,7.87365,"[14, 8, 6]",0,8 + 4 = ?,There are four spades.,3,"[4, 0, 0]",,True,filler,,,1,"[12, 8, 4]",2,"[3, 7, 2]",3449,8 + 6 = ?
,"[0, 1]",exh-only,,0,"[0, 0, 0]",0,True,"[1, 0]",0,True,undefined,1371,1,7.87365,"[6, 1, 5]",1,There is only a spade.,There is a star.,2,"[0, 0, 0]",,True,response,,,2,"[3, 6, 2]",2,"[6, 8, 2]",4038,There is only a star.
,"[1, 0]",exh-only,,0,"[0, 0, 0]",1,True,"[1, 0]",0,True,undefined,1294,0,7.87365,"[7, 8, 4]",0,There is a triangle.,There is a triangle.,1,"[0, 0, 0]",,True,filler,,,2,"[9, 3, 7]",2,"[9, 2, 5]",3788,There is a circle.
,"[0, 1]",exh-only,,1,"[0, 0, 0]",1,True,"[0, 1]",1,True,undefined,1582,1,7.87365,"[4, 7, 1]",1,Some of the symbols are stars.,Some of the symbols are squares.,0,"[0, 0, 0]",,True,filler,,,0,"[6, 4, 9]",2,"[5, 0, 3]",6069,Some of the symbols are hearts.
,"[0, 1]",exh-only,,0,"[0, 0, 0]",1,True,"[1, 0]",0,True,undefined,1500,1,7.87365,"[6, 2, 1]",1,Only some of the symbols are triangles.,Some of the symbols are triangles.,2,"[0, 0, 0]",,True,filler,,,0,"[9, 2, 1]",2,"[9, 1, 5]",5650,Only some of the symbols are stars.
,"[0, 1]",exh-only,,0,"[0, 0, 0]",1,True,"[1, 0]",0,True,undefined,1174,1,7.87365,"[2, 7, 8]",1,There are four diamonds.,There are four clubs.,1,"[0, 0, 0]",,True,filler,,,1,"[0, 1, 2]",2,"[1, 7, 2]",3287,There are four ticks.
,"[1, 0]",exh-only,,1,"[0, 0, 0]",1,True,"[0, 1]",1,True,undefined,1196,0,7.87365,"[4, 3, 2]",0,There are four ticks.,There are four stars.,0,"[0, 0, 0]",,True,filler,,,1,"[2, 9, 6]",2,"[6, 4, 7]",3717,There are four hearts.
,"[0, 1]",exh-only,,0,"[0, 0, 0]",1,True,"[1, 0]",0,True,undefined,1841,1,7.87365,"[9, 7, 6]",1,Some of the symbols are triangles.,Some of the symbols are squares.,0,"[0, 0, 0]",,True,filler,,,0,"[9, 3, 6]",2,"[5, 0, 2]",5499,Some of the symbols are triangles.
,"[1, 0]",exh-only,,1,"[0, 0, 0]",0,True,"[0, 1]",1,True,undefined,1506,0,7.87365,"[9, 7, 1]",0,There are four ticks.,There are four spades.,1,"[0, 0, 0]",,True,response,,,1,"[2, 0, 7]",2,"[3, 5, 7]",3587,There are four triangles.
,"[0, 1]",exh-only,,0,"[0, 0, 0]",1,True,"[1, 0]",0,True,undefined,1648,1,7.87365,"[5, 9, 7]",1,There are only four triangles.,There are four notes.,2,"[0, 0, 0]",,True,filler,,,1,"[9, 3, 6]",2,"[8, 7, 4]",4112,There are only four squares.
,"[1, 0]",exh-only,,1,"[5, 0, 0]",1,True,"[0, 1]",1,False,undefined,1487,1,7.87365,"[3, 0, 3]",0,5 + 2 = ?,Some of the symbols are circles.,3,"[3, 0, 0]",,False,filler,,,0,"[7, 5, 2]",2,"[7, 5, 6]",5065,0 + 3 = ?
Patricia,,,,,,,,,,,undefined,,,19.97655,,,,,,,1,,,bot_check,"[0, 'Patricia']",,,3,,,
,"[0, 1]",exh-only,,0,"[9, 0, 0]",1,False,"[1, 0]",1,False,undefined,5463,0,19.97655,"[12, 6, 6]",1,9 + 3 = ?,Some of the symbols are spades.,3,"[8, 0, 0]",,False,filler,,,0,"[12, 9, 3]",3,"[3, 1, 9]",14439,6 + 6 = ?
,"[1, 0]",exh-only,,1,"[0, 0, 0]",1,True,"[0, 1]",1,True,undefined,6279,0,19.97655,"[6, 9, 5]",0,There are four spades.,There are four ticks.,0,"[0, 0, 0]",,True,response,,,1,"[3, 2, 8]",3,"[2, 1, 6]",17752,There are four stars.
,"[1, 0]",exh-only,,0,"[1, 0, 0]",1,True,"[1, 0]",0,False,undefined,6848,1,19.97655,"[5, 1, 4]",0,7 + 1 = ?,Some of the symbols are hearts.,3,"[4, 0, 0]",,False,response,,,0,"[8, 7, 1]",3,"[4, 8, 2]",13176,1 + 4 = ?
,"[1, 0]",exh-only,,1,"[0, 0, 0]",1,True,"[0, 1]",1,True,undefined,2975,0,19.97655,"[3, 5, 6]",0,There are four hearts.,There are four spades.,0,"[0, 0, 0]",,True,filler,,,1,"[4, 0, 6]",3,"[3, 4, 9]",9056,There are four spades.
,"[0, 1]",exh-only,,0,"[0, 0, 0]",1,True,"[1, 0]",0,True,undefined,3401,1,19.97655,"[4, 3, 8]",1,There is a heart.,There is a circle.,0,"[0, 0, 0]",,True,filler,,,2,"[4, 3, 8]",3,"[7, 9, 3]",12496,There is a heart.
,"[1, 0]",exh-only,,1,"[0, 0, 0]",1,True,"[0, 1]",1,True,undefined,2880,0,19.97655,"[7, 8, 4]",0,There are four ticks.,There are four stars.,0,"[0, 0, 0]",,True,filler,,,1,"[2, 8, 9]",3,"[6, 7, 3]",9343,There are four circles.
,"[1, 0]",exh-only,,1,"[3, 0, 0]",0,False,"[0, 1]",0,False,undefined,3319,1,19.97655,"[8, 2, 6]",0,9 + 3 = ?,There is a circle.,3,"[1, 0, 0]",,False,response,,,2,"[12, 9, 3]",3,"[7, 3, 9]",9608,2 + 6 = ?
,"[0, 1]",exh-only,,1,"[0, 0, 0]",0,True,"[0, 1]",1,True,undefined,3776,1,19.97655,"[2, 8, 6]",1,There is only a tick.,There is a club.,2,"[0, 0, 0]",,True,filler,,,2,"[2, 8, 9]",3,"[1, 3, 2]",11681,There is only a tick.
,"[0, 1]",exh-only,,0,"[0, 0, 0]",1,True,"[1, 0]",0,True,undefined,3871,1,19.97655,"[4, 2, 1]",1,Only some of the symbols are hearts.,Some of the symbols are ticks.,2,"[0, 0, 0]",,True,filler,,,0,"[4, 7, 2]",3,"[2, 8, 6]",17815,Only some of the symbols are hearts.
,"[1, 0]",exh-only,,0,"[0, 0, 0]",1,True,"[1, 0]",0,True,undefined,3711,0,19.97655,"[4, 7, 3]",0,There is a star.,There is a diamond.,0,"[0, 0, 0]",,True,filler,,,2,"[6, 3, 1]",3,"[0, 5, 2]",14169,There is a heart.
,"[1, 0]",exh-only,,1,"[0, 0, 0]",1,True,"[0, 1]",1,True,undefined,3215,0,19.97655,"[2, 6, 1]",0,There is a star.,There is a circle.,0,"[0, 0, 0]",,True,filler,,,2,"[6, 9, 4]",3,"[7, 0, 4]",10336,There is a tick.
,"[0, 1]",exh-only,,1,"[0, 0, 0]",0,True,"[0, 1]",1,True,undefined,2912,1,19.97655,"[3, 2, 4]",1,Some of the symbols are clubs.,Some of the symbols are ticks.,0,"[0, 0, 0]",,True,response,,,0,"[1, 2, 8]",3,"[2, 4, 3]",10032,Some of the symbols are spades.
,"[1, 0]",exh-only,,1,"[8, 0, 0]",1,False,"[0, 1]",0,False,undefined,2895,1,19.97655,"[4, 0, 4]",0,3 + 6 = ?,There are four notes.,3,"[3, 0, 0]",,False,filler,,,1,"[9, 3, 6]",3,"[8, 0, 5]",8976,0 + 4 = ?
,"[0, 1]",exh-only,,0,"[0, 0, 0]",1,True,"[1, 0]",0,True,undefined,3031,1,19.97655,"[0, 6, 1]",1,Some of the symbols are stars.,Some of the symbols are clubs.,1,"[0, 0, 0]",,True,filler,,,0,"[6, 8, 3]",3,"[1, 8, 5]",11272,Some of the symbols are diamonds.
,"[1, 0]",exh-only,,0,"[0, 0, 0]",1,True,"[1, 0]",0,True,undefined,3375,0,19.97655,"[2, 6, 5]",0,Only some of the symbols are hearts.,Some of the symbols are triangles.,2,"[0, 0, 0]",,True,response,,,0,"[4, 5, 0]",3,"[9, 2, 4]",10416,Only some of the symbols are ticks.
,"[1, 0]",exh-only,,1,"[0, 0, 0]",1,True,"[0, 1]",1,True,undefined,5783,0,19.97655,"[2, 6, 9]",0,Some of the symbols are clubs.,Some of the symbols are circles.,1,"[0, 0, 0]",,True,response,,,0,"[1, 3, 8]",3,"[7, 1, 0]",18936,Some of the symbols are ticks.
,"[1, 0]",exh-only,,0,"[4, 0, 0]",1,False,"[1, 0]",1,False,undefined,3631,0,19.97655,"[6, 1, 5]",0,5 + 6 = ?,There are four clubs.,3,"[1, 0, 0]",,True,filler,,,1,"[11, 5, 6]",3,"[1, 8, 0]",8752,1 + 5 = ?
,"[1, 0]",exh-only,,0,"[0, 0, 0]",0,True,"[1, 0]",0,True,undefined,3576,0,19.97655,"[5, 2, 7]",0,Some of the symbols are stars.,Some of the symbols are squares.,0,"[0, 0, 0]",,True,response,,,0,"[6, 0, 1]",3,"[5, 1, 6]",11296,Some of the symbols are squares.
,"[0, 1]",exh-only,,0,"[0, 0, 0]",0,True,"[1, 0]",0,True,undefined,2520,1,19.97655,"[9, 5, 6]",1,There is a diamond.,There is a note.,1,"[0, 0, 0]",,True,response,,,2,"[0, 5, 2]",3,"[8, 5, 9]",8384,There is a triangle.
,"[0, 1]",exh-only,,0,"[4, 0, 0]",1,False,"[1, 0]",1,False,undefined,2784,0,19.97655,"[3, 1, 2]",1,7 + 2 = ?,Some of the symbols are diamonds.,3,"[9, 0, 0]",,False,filler,,,0,"[9, 7, 2]",3,"[0, 8, 5]",8160,1 + 2 = ?
,"[1, 0]",exh-only,,0,"[0, 0, 0]",1,True,"[1, 0]",0,True,undefined,2560,0,19.97655,"[5, 2, 4]",0,There are four notes.,There are four triangles.,1,"[0, 0, 0]",,True,filler,,,1,"[8, 3, 9]",3,"[9, 2, 7]",7416,There are four squares.
,"[0, 1]",exh-only,,0,"[0, 0, 0]",1,True,"[1, 0]",0,True,undefined,3575,1,19.97655,"[2, 8, 9]",1,Some of the symbols are stars.,Some of the symbols are diamonds.,1,"[0, 0, 0]",,True,filler,,,0,"[6, 4, 1]",3,"[0, 5, 1]",11552,Some of the symbols are ticks.
,"[1, 0]",exh-only,,1,"[0, 0, 0]",0,True,"[0, 1]",1,True,undefined,3176,0,19.97655,"[1, 5, 7]",0,There is only a spade.,There is a star.,2,"[0, 0, 0]",,True,response,,,2,"[3, 1, 0]",3,"[6, 8, 3]",12352,There is only a club.
,"[1, 0]",exh-only,,0,"[0, 0, 0]",1,True,"[1, 0]",0,True,undefined,3671,0,19.97655,"[2, 1, 6]",0,There are four spades.,There are four hearts.,0,"[0, 0, 0]",,True,response,,,1,"[3, 1, 0]",3,"[4, 1, 9]",9392,There are four ticks.
,"[0, 1]",exh-only,,1,"[1, 0, 0]",1,True,"[0, 1]",1,True,undefined,2527,1,19.97655,"[0, 0, 0]",1,6 + 9 = ?,There are four clubs.,3,"[0, 0, 0]",,True,filler,,,1,"[15, 6, 9]",3,"[1, 7, 0]",9048,0 + 0 = ?
,"[0, 1]",exh-only,,0,"[4, 0, 0]",0,True,"[1, 0]",0,True,undefined,5134,1,19.97655,"[9, 8, 1]",1,6 + 4 = ?,There is a note.,3,"[4, 0, 0]",,True,response,,,2,"[10, 6, 4]",3,"[8, 6, 1]",9864,8 + 1 = ?
,"[0, 1]",exh-only,,1,"[0, 0, 0]",1,True,"[0, 1]",1,True,undefined,12712,1,19.97655,"[9, 2, 0]",1,There are only four clubs.,There are four circles.,2,"[0, 0, 0]",,True,filler,,,1,"[1, 0, 8]",3,"[7, 2, 9]",18089,There are only four triangles.
,"[0, 1]",exh-only,,0,"[0, 0, 0]",1,True,"[1, 0]",0,True,undefined,3015,1,19.97655,"[2, 0, 9]",1,There is a spade.,There is a diamond.,0,"[0, 0, 0]",,True,filler,,,2,"[3, 1, 0]",3,"[0, 2, 1]",12639,There is a tick.
,"[0, 1]",exh-only,,0,"[0, 0, 0]",1,True,"[1, 0]",0,True,undefined,2831,1,19.97655,"[2, 7, 1]",1,Some of the symbols are squares.,Some of the symbols are spades.,1,"[0, 0, 0]",,True,filler,,,0,"[5, 0, 8]",3,"[3, 8, 9]",10680,Some of the symbols are ticks.
,"[0, 1]",exh-only,,1,"[0, 0, 0]",1,True,"[0, 1]",1,True,undefined,3167,1,19.97655,"[0, 8, 6]",1,Some of the symbols are stars.,Some of the symbols are notes.,0,"[0, 0, 0]",,True,filler,,,0,"[6, 0, 3]",3,"[8, 7, 5]",10224,Some of the symbols are diamonds.
,"[0, 1]",exh-only,,0,"[0, 0, 0]",0,True,"[1, 0]",0,True,undefined,2607,1,19.97655,"[8, 7, 9]",1,There is a tick.,There is a heart.,0,"[0, 0, 0]",,True,response,,,2,"[2, 4, 6]",3,"[4, 7, 9]",7536,There is a note.
,"[0, 1]",exh-only,,0,"[0, 0, 0]",1,True,"[1, 0]",0,True,undefined,2991,1,19.97655,"[8, 4, 5]",1,There is a triangle.,There is a note.,1,"[0, 0, 0]",,True,filler,,,2,"[9, 1, 7]",3,"[8, 6, 7]",8128,There is a note.
,"[0, 1]",exh-only,,0,"[0, 0, 0]",0,True,"[1, 0]",0,True,undefined,3504,1,19.97655,"[4, 2, 8]",1,There is a square.,There is a club.,0,"[0, 0, 0]",,True,response,,,2,"[5, 1, 4]",3,"[1, 7, 8]",9704,There is a heart.
,"[1, 0]",exh-only,,0,"[0, 0, 0]",1,True,"[1, 0]",0,True,undefined,2120,0,19.97655,"[9, 0, 3]",0,There are four hearts.,There are four squares.,0,"[0, 0, 0]",,True,filler,,,1,"[4, 9, 1]",3,"[5, 0, 6]",7656,There are four triangles.
,"[0, 1]",exh-only,,1,"[0, 0, 0]",0,True,"[0, 1]",1,True,undefined,2407,1,19.97655,"[9, 6, 2]",1,There are four diamonds.,There are four ticks.,0,"[0, 0, 0]",,True,response,,,1,"[0, 2, 3]",3,"[2, 1, 6]",7800,There are four triangles.
,"[1, 0]",exh-only,,0,"[0, 0, 0]",0,True,"[1, 0]",0,True,undefined,2576,0,19.97655,"[7, 1, 0]",0,There is a heart.,There is a spade.,0,"[0, 0, 0]",,True,response,,,2,"[4, 9, 7]",3,"[3, 7, 5]",8168,There is a circle.
,"[1, 0]",exh-only,,1,"[0, 0, 0]",1,True,"[0, 1]",1,True,undefined,2840,0,19.97655,"[8, 3, 9]",0,Some of the symbols are hearts.,Some of the symbols are spades.,1,"[0, 0, 0]",,True,filler,,,0,"[4, 5, 2]",3,"[3, 0, 5]",9384,Some of the symbols are notes.
,"[0, 1]",exh-only,,0,"[0, 0, 0]",0,True,"[1, 0]",0,True,undefined,3640,1,19.97655,"[2, 3, 9]",1,There are four spades.,There are four stars.,0,"[0, 0, 0]",,True,response,,,1,"[3, 6, 4]",3,"[6, 0, 5]",82608,There are four ticks.
,"[1, 0]",exh-only,,1,"[0, 0, 0]",0,True,"[0, 1]",1,True,undefined,3288,0,19.97655,"[2, 6, 8]",0,There are only four spades.,There are four squares.,2,"[0, 0, 0]",,True,response,,,1,"[3, 7, 8]",3,"[5, 7, 2]",8344,There are only four ticks.
,"[0, 1]",exh-only,,1,"[6, 0, 0]",0,True,"[0, 1]",1,False,undefined,2368,0,19.97655,"[10, 7, 3]",1,0 + 3 = ?,There are four hearts.,3,"[9, 0, 0]",,False,response,,,1,"[3, 0, 3]",3,"[4, 9, 8]",7176,7 + 3 = ?
,"[1, 0]",exh-only,,1,"[9, 0, 0]",1,True,"[0, 1]",1,True,undefined,3792,0,19.97655,"[10, 3, 7]",0,2 + 0 = ?,Some of the symbols are stars.,3,"[7, 0, 0]",,True,response,,,0,"[2, 2, 0]",3,"[6, 7, 9]",8200,3 + 7 = ?
,"[1, 0]",exh-only,,1,"[0, 0, 0]",1,True,"[0, 1]",1,True,undefined,3848,0,19.97655,"[8, 5, 0]",0,Only some of the symbols are triangles.,Some of the symbols are notes.,2,"[0, 0, 0]",,True,filler,,,0,"[9, 2, 0]",3,"[8, 2, 4]",12656,Only some of the symbols are notes.
,"[1, 0]",exh-only,,0,"[0, 0, 0]",1,True,"[1, 0]",0,True,undefined,3176,0,19.97655,"[8, 6, 2]",0,There are four spades.,There are four diamonds.,1,"[0, 0, 0]",,True,response,,,1,"[3, 5, 1]",3,"[0, 5, 9]",10184,There are four notes.
,"[1, 0]",exh-only,,1,"[0, 0, 0]",1,True,"[0, 1]",1,True,undefined,2150,0,19.97655,"[5, 0, 3]",0,There are four stars.,There are four squares.,1,"[0, 0, 0]",,True,filler,,,1,"[6, 1, 3]",3,"[5, 8, 3]",7032,There are four squares.
,"[1, 0]",exh-only,,0,"[1, 0, 0]",1,False,"[1, 0]",1,False,undefined,3367,1,19.97655,"[15, 6, 9]",0,1 + 0 = ?,There is a tick.,3,"[6, 0, 0]",,False,filler,,,2,"[1, 1, 0]",3,"[2, 3, 8]",9072,6 + 9 = ?
,"[1, 0]",exh-only,,0,"[0, 0, 0]",1,True,"[1, 0]",0,True,undefined,2671,0,19.97655,"[2, 0, 4]",0,There are only four clubs.,There are four hearts.,2,"[0, 0, 0]",,True,filler,,,1,"[1, 3, 9]",3,"[4, 5, 1]",7776,There are only four ticks.
,"[1, 0]",exh-only,,0,"[1, 0, 0]",1,False,"[1, 0]",1,False,undefined,2255,0,19.97655,"[9, 6, 3]",0,7 + 4 = ?,There are four spades.,3,"[3, 0, 0]",,True,filler,,,1,"[11, 7, 4]",3,"[3, 1, 9]",6272,6 + 3 = ?
,"[1, 0]",exh-only,,0,"[0, 0, 0]",1,True,"[1, 0]",0,False,undefined,2583,1,19.97655,"[6, 6, 0]",0,5 + 1 = ?,There is a note.,3,"[9, 0, 0]",,False,filler,,,2,"[6, 5, 1]",3,"[8, 9, 4]",6616,6 + 0 = ?
,"[0, 1]",exh-only,,0,"[0, 0, 0]",1,True,"[1, 0]",0,True,undefined,3008,1,19.97655,"[2, 6, 3]",1,There are only four spades.,There are four circles.,2,"[0, 0, 0]",,True,response,,,1,"[3, 9, 0]",3,"[7, 6, 0]",7881,There are only four ticks.
,"[0, 1]",exh-only,,1,"[0, 0, 0]",1,True,"[0, 1]",1,True,undefined,2551,1,19.97655,"[6, 7, 8]",1,There are only four triangles.,There are four spades.,2,"[0, 0, 0]",,True,filler,,,1,"[9, 2, 3]",3,"[3, 8, 6]",8807,There are only four stars.
,"[1, 0]",exh-only,,1,"[0, 0, 0]",1,True,"[0, 1]",1,True,undefined,3000,0,19.97655,"[8, 4, 9]",0,Some of the symbols are squares.,Some of the symbols are triangles.,1,"[0, 0, 0]",,True,response,,,0,"[5, 9, 8]",3,"[9, 6, 7]",11568,Some of the symbols are notes.
,"[1, 0]",exh-only,,0,"[0, 0, 0]",1,True,"[1, 0]",0,True,undefined,2568,0,19.97655,"[6, 1, 9]",0,There are only four squares.,There are four diamonds.,2,"[0, 0, 0]",,True,filler,,,1,"[5, 4, 1]",3,"[0, 5, 9]",8127,There are only four stars.
,"[0, 1]",exh-only,,1,"[0, 0, 0]",1,True,"[0, 1]",1,True,undefined,2520,1,19.97655,"[3, 6, 9]",1,There are four ticks.,There are four spades.,0,"[0, 0, 0]",,True,filler,,,1,"[2, 7, 9]",3,"[3, 8, 9]",8967,There are four spades.
,"[1, 0]",exh-only,,1,"[0, 0, 0]",1,True,"[0, 1]",1,True,undefined,3231,0,19.97655,"[5, 0, 9]",0,There is a tick.,There is a tick.,1,"[0, 0, 0]",,True,filler,,,2,"[2, 9, 3]",3,"[2, 0, 7]",7344,There is a square.
,"[1, 0]",exh-only,,0,"[0, 0, 0]",1,True,"[1, 0]",0,True,undefined,3432,0,19.97655,"[5, 9, 4]",0,Only some of the symbols are squares.,Some of the symbols are circles.,2,"[0, 0, 0]",,True,response,,,0,"[5, 7, 4]",3,"[7, 5, 1]",18504,Only some of the symbols are squares.
,"[1, 0]",exh-only,,0,"[0, 0, 0]",1,True,"[1, 0]",0,True,undefined,2759,0,19.97655,"[3, 5, 8]",0,Only some of the symbols are circles.,Some of the symbols are triangles.,2,"[0, 0, 0]",,True,response,,,0,"[7, 3, 2]",3,"[9, 7, 1]",11992,Only some of the symbols are spades.
,"[1, 0]",exh-only,,1,"[0, 0, 0]",1,True,"[0, 1]",1,True,undefined,6408,0,19.97655,"[8, 7, 1]",0,Some of the symbols are squares.,Some of the symbols are hearts.,1,"[0, 0, 0]",,True,response,,,0,"[5, 2, 4]",3,"[4, 5, 0]",45801,Some of the symbols are notes.
,"[1, 0]",exh-only,,1,"[0, 0, 0]",1,True,"[0, 1]",1,True,undefined,5567,0,19.97655,"[7, 6, 9]",0,Some of the symbols are hearts.,Some of the symbols are diamonds.,0,"[0, 0, 0]",,True,filler,,,0,"[4, 0, 2]",3,"[0, 6, 7]",14256,Some of the symbols are circles.
,"[1, 0]",exh-only,,0,"[8, 0, 0]",1,True,"[1, 0]",0,False,undefined,4470,1,19.97655,"[9, 3, 6]",0,1 + 6 = ?,Some of the symbols are spades.,3,"[6, 0, 0]",,False,response,,,0,"[7, 1, 6]",3,"[3, 2, 7]",15192,3 + 6 = ?
,"[1, 0]",exh-only,,0,"[3, 0, 0]",1,False,"[1, 0]",1,False,undefined,3064,0,19.97655,"[7, 1, 6]",0,8 + 3 = ?,Some of the symbols are spades.,3,"[5, 0, 0]",,True,filler,,,0,"[11, 8, 3]",3,"[3, 6, 5]",8408,1 + 6 = ?
,"[0, 1]",exh-only,,1,"[7, 0, 0]",1,True,"[0, 1]",1,False,undefined,2567,0,19.97655,"[9, 1, 8]",1,5 + 8 = ?,There are four stars.,3,"[0, 0, 0]",,False,response,,,1,"[13, 5, 8]",3,"[6, 5, 7]",8168,1 + 8 = ?
,"[1, 0]",exh-only,,1,"[0, 0, 0]",1,True,"[0, 1]",1,True,undefined,2903,0,19.97655,"[5, 6, 2]",0,Some of the symbols are triangles.,Some of the symbols are ticks.,0,"[0, 0, 0]",,True,response,,,0,"[9, 4, 2]",3,"[2, 5, 6]",12192,Some of the symbols are squares.
,"[0, 1]",exh-only,,1,"[8, 0, 0]",1,True,"[0, 1]",1,False,undefined,2512,0,19.97655,"[6, 4, 2]",1,3 + 4 = ?,There are four notes.,3,"[0, 0, 0]",,False,response,,,1,"[7, 3, 4]",3,"[8, 1, 4]",7544,4 + 2 = ?
,"[0, 1]",exh-only,,1,"[5, 0, 0]",1,False,"[0, 1]",0,False,undefined,2663,1,19.97655,"[12, 4, 8]",1,2 + 5 = ?,Some of the symbols are clubs.,3,"[5, 0, 0]",,True,filler,,,0,"[7, 2, 5]",3,"[1, 7, 6]",7248,4 + 8 = ?
,"[1, 0]",exh-only,,1,"[0, 0, 0]",0,True,"[0, 1]",1,True,undefined,2472,0,19.97655,"[2, 7, 0]",0,Some of the symbols are spades.,Some of the symbols are circles.,0,"[0, 0, 0]",,True,response,,,0,"[3, 0, 4]",3,"[7, 1, 2]",8408,Some of the symbols are ticks.
,"[0, 1]",exh-only,,0,"[0, 0, 0]",1,True,"[1, 0]",0,True,undefined,2759,1,19.97655,"[4, 5, 8]",1,Some of the symbols are notes.,Some of the symbols are hearts.,1,"[0, 0, 0]",,True,response,,,0,"[8, 1, 3]",3,"[4, 2, 1]",7976,Some of the symbols are hearts.
,"[0, 1]",exh-only,,1,"[5, 0, 0]",1,False,"[0, 1]",0,False,undefined,4663,1,19.97655,"[4, 2, 2]",1,3 + 3 = ?,Some of the symbols are clubs.,3,"[3, 0, 0]",,True,response,,,0,"[6, 3, 3]",3,"[1, 5, 0]",9272,2 + 2 = ?
,"[0, 1]",exh-only,,0,"[0, 0, 0]",1,True,"[1, 0]",0,True,undefined,2479,1,19.97655,"[4, 9, 5]",1,There are only four diamonds.,There are four spades.,2,"[0, 0, 0]",,True,response,,,1,"[0, 7, 9]",3,"[3, 1, 4]",7464,There are only four hearts.
,"[0, 1]",exh-only,,0,"[0, 0, 0]",1,True,"[1, 0]",0,True,undefined,2903,1,19.97655,"[4, 1, 5]",1,There is a star.,There is a circle.,1,"[0, 0, 0]",,True,response,,,2,"[6, 9, 5]",3,"[7, 6, 3]",7920,There is a heart.
,"[0, 1]",exh-only,,0,"[0, 0, 0]",1,True,"[1, 0]",0,True,undefined,2471,1,19.97655,"[0, 2, 4]",1,Only some of the symbols are ticks.,Some of the symbols are spades.,2,"[0, 0, 0]",,True,response,,,0,"[2, 6, 3]",3,"[3, 7, 2]",8631,Only some of the symbols are diamonds.
,"[0, 1]",exh-only,,1,"[9, 0, 0]",0,False,"[0, 1]",0,False,undefined,4103,1,19.97655,"[5, 2, 3]",1,7 + 8 = ?,There is a circle.,3,"[6, 0, 0]",,True,response,,,2,"[15, 7, 8]",3,"[7, 3, 9]",9560,2 + 3 = ?
,"[0, 1]",exh-only,,1,"[0, 0, 0]",1,True,"[0, 1]",1,True,undefined,2976,1,19.97655,"[7, 6, 9]",1,Some of the symbols are diamonds.,Some of the symbols are ticks.,0,"[0, 0, 0]",,True,filler,,,0,"[0, 2, 3]",3,"[2, 3, 9]",8512,Some of the symbols are circles.
,"[0, 1]",exh-only,,1,"[0, 0, 0]",0,True,"[0, 1]",1,True,undefined,3680,1,19.97655,"[1, 2, 4]",1,There is only a heart.,There is a club.,2,"[0, 0, 0]",,True,response,,,2,"[4, 7, 1]",3,"[1, 5, 0]",8328,There is only a club.
,"[0, 1]",exh-only,,1,"[0, 0, 0]",0,True,"[0, 1]",1,True,undefined,3552,1,19.97655,"[4, 0, 5]",1,There is only a diamond.,There is a star.,2,"[0, 0, 0]",,True,response,,,2,"[0, 7, 3]",3,"[6, 3, 0]",8305,There is only a heart.
,"[1, 0]",exh-only,,1,"[0, 0, 0]",1,True,"[0, 1]",1,True,undefined,2080,0,19.97655,"[3, 1, 8]",0,There is only a club.,There is a tick.,2,"[0, 0, 0]",,True,filler,,,2,"[1, 8, 7]",3,"[2, 7, 1]",7039,There is only a spade.
,"[0, 1]",exh-only,,0,"[0, 0, 0]",0,True,"[1, 0]",0,True,undefined,2000,1,19.97655,"[1, 8, 2]",1,There is a star.,There is a diamond.,0,"[0, 0, 0]",,True,response,,,2,"[6, 5, 0]",3,"[0, 8, 1]",9160,There is a club.
,"[1, 0]",exh-only,,1,"[0, 0, 0]",0,True,"[0, 1]",1,True,undefined,2415,0,19.97655,"[2, 5, 1]",0,There is a star.,There is a heart.,1,"[0, 0, 0]",,True,response,,,2,"[6, 0, 7]",3,"[4, 0, 6]",9152,There is a tick.
,"[0, 1]",exh-only,,1,"[6, 0, 0]",0,True,"[0, 1]",1,True,undefined,2519,1,19.97655,"[3, 3, 0]",1,1 + 6 = ?,There is a circle.,3,"[4, 0, 0]",,True,response,,,2,"[7, 1, 6]",3,"[7, 9, 6]",6568,3 + 0 = ?
,"[0, 1]",exh-only,,1,"[0, 0, 0]",1,False,"[0, 1]",0,False,undefined,3455,1,19.97655,"[12, 5, 7]",1,8 + 3 = ?,There is a star.,3,"[7, 0, 0]",,True,filler,,,2,"[11, 8, 3]",3,"[6, 0, 8]",8656,5 + 7 = ?
,"[1, 0]",exh-only,,1,"[0, 0, 0]",0,True,"[0, 1]",1,True,undefined,3288,0,19.97655,"[3, 2, 4]",0,There is only a triangle.,There is a square.,2,"[0, 0, 0]",,True,response,,,2,"[9, 0, 6]",3,"[5, 2, 6]",7552,There is only a spade.
,"[1, 0]",exh-only,,0,"[0, 0, 0]",1,True,"[1, 0]",0,True,undefined,3216,0,19.97655,"[7, 3, 6]",0,There are only four circles.,There are four notes.,2,"[0, 0, 0]",,True,response,,,1,"[7, 4, 0]",3,"[8, 9, 7]",9664,There are only four circles.
,"[0, 1]",exh-only,,0,"[0, 0, 0]",1,True,"[1, 0]",0,True,undefined,2935,1,19.97655,"[7, 6, 1]",1,There is a diamond.,There is a spade.,1,"[0, 0, 0]",,True,filler,,,2,"[0, 2, 9]",3,"[3, 7, 8]",7304,There is a circle.
,"[0, 1]",exh-only,,0,"[0, 0, 0]",1,True,"[1, 0]",0,True,undefined,14959,1,19.97655,"[1, 4, 5]",1,Only some of the symbols are circles.,Some of the symbols are clubs.,2,"[0, 0, 0]",,True,filler,,,0,"[7, 2, 4]",3,"[1, 0, 9]",28056,Only some of the symbols are clubs.
,"[1, 0]",exh-only,,0,"[0, 0, 0]",1,True,"[1, 0]",0,True,undefined,2456,0,19.97655,"[7, 5, 1]",0,There are four ticks.,There are four circles.,1,"[0, 0, 0]",,True,response,,,1,"[2, 0, 3]",3,"[7, 0, 6]",7152,There are four circles.
,"[0, 1]",exh-only,,0,"[5, 0, 0]",1,True,"[1, 0]",0,True,undefined,2080,1,19.97655,"[16, 8, 8]",1,6 + 1 = ?,There are four hearts.,3,"[8, 0, 0]",,True,response,,,1,"[7, 6, 1]",3,"[4, 3, 0]",7208,8 + 8 = ?
,"[0, 1]",exh-only,,1,"[0, 0, 0]",1,True,"[0, 1]",1,True,undefined,2688,1,19.97655,"[6, 5, 0]",1,There are four hearts.,There are four spades.,1,"[0, 0, 0]",,True,response,,,1,"[4, 0, 5]",3,"[3, 0, 1]",6856,There are four stars.
,"[0, 1]",exh-only,,1,"[0, 0, 0]",0,True,"[0, 1]",1,True,undefined,3959,1,19.97655,"[5, 6, 0]",1,There is a tick.,There is a triangle.,1,"[0, 0, 0]",,True,filler,,,2,"[2, 6, 1]",3,"[9, 0, 6]",9088,There is a square.
,"[1, 0]",exh-only,,0,"[0, 0, 0]",1,True,"[1, 0]",0,True,undefined,3104,0,19.97655,"[0, 5, 7]",0,There are four squares.,There are four diamonds.,1,"[0, 0, 0]",,True,response,,,1,"[5, 9, 1]",3,"[0, 8, 3]",7793,There are four diamonds.
,"[0, 1]",exh-only,,1,"[6, 0, 0]",1,False,"[0, 1]",0,False,undefined,2968,1,19.97655,"[9, 9, 0]",1,1 + 5 = ?,There is a diamond.,3,"[6, 0, 0]",,True,filler,,,2,"[6, 1, 5]",3,"[0, 4, 9]",13911,9 + 0 = ?
,"[0, 1]",exh-only,,1,"[0, 0, 0]",0,True,"[0, 1]",1,True,undefined,2080,1,19.97655,"[5, 6, 9]",1,There is a heart.,There is a note.,1,"[0, 0, 0]",,True,response,,,2,"[4, 3, 6]",3,"[8, 6, 4]",7704,There is a square.
,"[0, 1]",exh-only,,1,"[0, 0, 0]",1,True,"[0, 1]",1,True,undefined,5711,1,19.97655,"[8, 9, 6]",1,Some of the symbols are triangles.,Some of the symbols are clubs.,0,"[0, 0, 0]",,True,filler,,,0,"[9, 5, 7]",3,"[1, 3, 6]",10696,Some of the symbols are notes.
,"[0, 1]",exh-only,,0,"[0, 0, 0]",1,True,"[1, 0]",0,True,undefined,2631,1,19.97655,"[8, 7, 3]",1,There is only a square.,There is a triangle.,2,"[0, 0, 0]",,True,filler,,,2,"[5, 1, 0]",3,"[9, 1, 3]",7455,There is only a note.
,"[1, 0]",exh-only,,1,"[0, 0, 0]",1,True,"[0, 1]",1,True,undefined,2463,0,19.97655,"[6, 4, 2]",0,There are four ticks.,There are four hearts.,1,"[0, 0, 0]",,True,filler,,,1,"[2, 1, 9]",3,"[4, 2, 6]",9337,There are four stars.
,"[1, 0]",exh-only,,0,"[0, 0, 0]",1,True,"[1, 0]",0,True,undefined,2503,0,19.97655,"[6, 3, 2]",0,There are four circles.,There are four ticks.,1,"[0, 0, 0]",,True,filler,,,1,"[7, 1, 3]",3,"[2, 3, 4]",6856,There are four stars.
,"[1, 0]",exh-only,,0,"[0, 0, 0]",1,True,"[1, 0]",0,True,undefined,3896,0,19.97655,"[1, 7, 8]",0,There is only a star.,There is a club.,2,"[0, 0, 0]",,True,filler,,,2,"[6, 7, 4]",3,"[1, 3, 5]",9216,There is only a club.
,"[1, 0]",exh-only,,1,"[0, 0, 0]",1,True,"[0, 1]",1,True,undefined,2976,0,19.97655,"[2, 0, 7]",0,Only some of the symbols are spades.,Some of the symbols are diamonds.,2,"[0, 0, 0]",,True,filler,,,0,"[3, 8, 4]",3,"[0, 2, 8]",11112,Only some of the symbols are ticks.
Barbara,,,,,,,,,,,undefined,,,12.117516666666667,,,,,,,1,,,bot_check,"[0, 'Barbara']",,,4,,,
,"[0, 1]",exh-only,,1,"[0, 0, 0]",1,True,"[0, 1]",1,True,undefined,4815,1,12.117516666666667,"[8, 6, 5]",1,Only some of the symbols are squares.,Some of the symbols are ticks.,2,"[0, 0, 0]",,True,filler,,,0,"[5, 7, 2]",4,"[2, 1, 7]",13543,Only some of the symbols are notes.
,"[1, 0]",exh-only,,0,"[0, 0, 0]",0,True,"[1, 0]",0,True,undefined,1623,0,12.117516666666667,"[1, 6, 0]",0,There is a triangle.,There is a star.,0,"[0, 0, 0]",,True,response,,,2,"[9, 7, 6]",4,"[6, 8, 2]",6535,There is a club.
,"[1, 0]",exh-only,,1,"[0, 0, 0]",1,True,"[0, 1]",1,True,undefined,10479,0,12.117516666666667,"[8, 7, 1]",0,Some of the symbols are hearts.,Some of the symbols are circles.,1,"[0, 0, 0]",,True,response,,,0,"[4, 0, 6]",4,"[7, 5, 2]",19103,Some of the symbols are notes.
,"[0, 1]",exh-only,,1,"[6, 0, 0]",1,True,"[0, 1]",1,False,undefined,3351,0,12.117516666666667,"[7, 0, 7]",1,8 + 0 = ?,Some of the symbols are diamonds.,3,"[5, 0, 0]",,False,filler,,,0,"[8, 8, 0]",4,"[0, 4, 9]",9656,0 + 7 = ?
,"[0, 1]",exh-only,,1,"[0, 0, 0]",1,True,"[0, 1]",1,True,undefined,11816,1,12.117516666666667,"[1, 9, 3]",1,Some of the symbols are hearts.,Some of the symbols are notes.,0,"[0, 0, 0]",,True,response,,,0,"[4, 6, 0]",4,"[8, 0, 7]",22696,Some of the symbols are clubs.
,"[1, 0]",exh-only,,0,"[0, 0, 0]",1,True,"[1, 0]",0,True,undefined,2871,0,12.117516666666667,"[3, 9, 4]",0,There is a tick.,There is a note.,1,"[0, 0, 0]",,True,filler,,,2,"[2, 9, 6]",4,"[8, 2, 3]",12135,There is a spade.
,"[1, 0]",exh-only,,1,"[7, 0, 0]",1,True,"[0, 1]",1,True,undefined,2256,0,12.117516666666667,"[8, 4, 4]",0,5 + 0 = ?,There are four ticks.,3,"[9, 0, 0]",,True,filler,,,1,"[5, 5, 0]",4,"[2, 6, 9]",5553,4 + 4 = ?
,"[1, 0]",exh-only,,0,"[4, 0, 0]",1,False,"[1, 0]",1,False,undefined,2551,0,12.117516666666667,"[10, 6, 4]",0,8 + 4 = ?,Some of the symbols are triangles.,3,"[8, 0, 0]",,True,response,,,0,"[12, 8, 4]",4,"[9, 8, 0]",6039,6 + 4 = ?
,"[1, 0]",exh-only,,0,"[0, 0, 0]",1,True,"[1, 0]",0,True,undefined,2151,0,12.117516666666667,"[4, 3, 6]",0,There are four ticks.,There are four hearts.,1,"[0, 0, 0]",,True,filler,,,1,"[2, 8, 1]",4,"[4, 0, 7]",6431,There are four hearts.
,"[1, 0]",exh-only,,1,"[0, 0, 0]",1,True,"[0, 1]",1,True,undefined,2528,0,12.117516666666667,"[3, 9, 4]",0,Only some of the symbols are ticks.,Some of the symbols are spades.,2,"[0, 0, 0]",,True,filler,,,0,"[2, 4, 5]",4,"[3, 6, 4]",9976,Only some of the symbols are spades.
,"[0, 1]",exh-only,,0,"[0, 0, 0]",1,True,"[1, 0]",0,True,undefined,2104,1,12.117516666666667,"[2, 0, 7]",1,There are four circles.,There are four circles.,1,"[0, 0, 0]",,True,filler,,,1,"[7, 9, 6]",4,"[7, 4, 6]",5592,There are four ticks.
,"[0, 1]",exh-only,,1,"[0, 0, 0]",1,True,"[0, 1]",1,True,undefined,9350,1,12.117516666666667,"[1, 9, 4]",1,There are four squares.,There are four circles.,0,"[0, 0, 0]",,True,response,,,1,"[5, 4, 0]",4,"[7, 1, 4]",13888,There are four clubs.
,"[0, 1]",exh-only,,1,"[0, 0, 0]",1,True,"[0, 1]",1,True,undefined,7751,1,12.117516666666667,"[5, 0, 2]",1,There are only four ticks.,There are four triangles.,2,"[0, 0, 0]",,True,response,,,1,"[2, 4, 8]",4,"[9, 8, 5]",12767,There are only four squares.
,"[1, 0]",exh-only,,0,"[8, 0, 0]",0,True,"[1, 0]",0,False,undefined,3183,1,12.117516666666667,"[9, 4, 5]",0,3 + 4 = ?,There is a star.,3,"[5, 0, 0]",,False,response,,,2,"[7, 3, 4]",4,"[6, 9, 7]",6640,4 + 5 = ?
,"[0, 1]",exh-only,,0,"[7, 0, 0]",1,False,"[1, 0]",1,False,undefined,2143,0,12.117516666666667,"[13, 4, 9]",1,7 + 8 = ?,There is a heart.,3,"[8, 0, 0]",,False,filler,,,2,"[15, 7, 8]",4,"[4, 1, 3]",5175,4 + 9 = ?
,"[0, 1]",exh-only,,0,"[1, 0, 0]",1,False,"[1, 0]",1,False,undefined,1783,0,12.117516666666667,"[14, 5, 9]",1,1 + 2 = ?,There are four diamonds.,3,"[1, 0, 0]",,False,filler,,,1,"[3, 1, 2]",4,"[0, 1, 6]",4768,5 + 9 = ?
,"[1, 0]",exh-only,,1,"[0, 0, 0]",1,True,"[0, 1]",1,True,undefined,2159,0,12.117516666666667,"[0, 4, 1]",0,Some of the symbols are ticks.,Some of the symbols are stars.,1,"[0, 0, 0]",,True,filler,,,0,"[2, 1, 7]",4,"[6, 3, 7]",6767,Some of the symbols are diamonds.
,"[0, 1]",exh-only,,1,"[0, 0, 0]",0,True,"[0, 1]",1,True,undefined,1968,1,12.117516666666667,"[1, 2, 3]",1,There is a star.,There is a tick.,1,"[0, 0, 0]",,True,response,,,2,"[6, 2, 0]",4,"[2, 7, 5]",5688,There is a club.
,"[1, 0]",exh-only,,1,"[0, 0, 0]",1,True,"[0, 1]",1,True,undefined,3494,0,12.117516666666667,"[6, 7, 1]",0,Some of the symbols are hearts.,Some of the symbols are ticks.,1,"[0, 0, 0]",,True,response,,,0,"[4, 9, 1]",4,"[2, 0, 5]",9235,Some of the symbols are stars.
,"[0, 1]",exh-only,,0,"[0, 0, 0]",1,True,"[1, 0]",0,True,undefined,1792,1,12.117516666666667,"[0, 3, 1]",1,There are four notes.,There are four triangles.,0,"[0, 0, 0]",,True,filler,,,1,"[8, 0, 3]",4,"[9, 8, 4]",5712,There are four diamonds.
,"[1, 0]",exh-only,,0,"[0, 0, 0]",1,True,"[1, 0]",0,True,undefined,3192,0,12.117516666666667,"[6, 0, 1]",0,Some of the symbols are diamonds.,Some of the symbols are squares.,0,"[0, 0, 0]",,True,filler,,,0,"[0, 9, 4]",4,"[5, 0, 1]",8952,Some of the symbols are stars.
,"[0, 1]",exh-only,,1,"[0, 0, 0]",0,True,"[0, 1]",1,True,undefined,2167,1,12.117516666666667,"[7, 2, 8]",1,There is a tick.,There is a spade.,1,"[0, 0, 0]",,True,response,,,2,"[2, 3, 9]",4,"[3, 2, 9]",6367,There is a circle.
,"[1, 0]",exh-only,,0,"[5, 0, 0]",1,True,"[1, 0]",0,False,undefined,1799,1,12.117516666666667,"[15, 7, 8]",0,8 + 8 = ?,Some of the symbols are circles.,3,"[3, 0, 0]",,False,filler,,,0,"[16, 8, 8]",4,"[7, 0, 2]",4688,7 + 8 = ?
,"[0, 1]",exh-only,,0,"[0, 0, 0]",0,True,"[1, 0]",0,True,undefined,1935,1,12.117516666666667,"[4, 9, 2]",1,Some of the symbols are clubs.,Some of the symbols are diamonds.,0,"[0, 0, 0]",,True,response,,,0,"[1, 3, 0]",4,"[0, 1, 6]",6136,Some of the symbols are hearts.
,"[0, 1]",exh-only,,1,"[0, 0, 0]",1,True,"[0, 1]",1,True,undefined,1407,1,12.117516666666667,"[3, 1, 9]",1,There are four stars.,There are four squares.,0,"[0, 0, 0]",,True,filler,,,1,"[6, 2, 5]",4,"[5, 0, 3]",4264,There are four spades.
,"[1, 0]",exh-only,,1,"[0, 0, 0]",1,False,"[0, 1]",0,False,undefined,2799,1,12.117516666666667,"[5, 3, 2]",0,0 + 5 = ?,There are four notes.,3,"[8, 0, 0]",,False,response,,,1,"[5, 0, 5]",4,"[8, 4, 7]",5256,3 + 2 = ?
,"[1, 0]",exh-only,,1,"[0, 0, 0]",1,True,"[0, 1]",1,True,undefined,2159,0,12.117516666666667,"[7, 1, 6]",0,There are four clubs.,There are four stars.,0,"[0, 0, 0]",,True,response,,,1,"[1, 8, 3]",4,"[6, 8, 9]",6736,There are four circles.
,"[0, 1]",exh-only,,0,"[8, 0, 0]",1,True,"[1, 0]",0,True,undefined,1903,1,12.117516666666667,"[14, 7, 7]",1,3 + 0 = ?,Some of the symbols are triangles.,3,"[3, 0, 0]",,True,filler,,,0,"[3, 3, 0]",4,"[9, 8, 0]",5096,7 + 7 = ?
,"[1, 0]",exh-only,,0,"[6, 0, 0]",1,True,"[1, 0]",0,False,undefined,2327,1,12.117516666666667,"[1, 0, 1]",0,9 + 0 = ?,There are four stars.,3,"[3, 0, 0]",,False,response,,,1,"[9, 9, 0]",4,"[6, 9, 2]",7630,0 + 1 = ?
,"[1, 0]",exh-only,,1,"[0, 0, 0]",1,True,"[0, 1]",1,True,undefined,4007,0,12.117516666666667,"[2, 0, 9]",0,Some of the symbols are hearts.,Some of the symbols are clubs.,0,"[0, 0, 0]",,True,filler,,,0,"[4, 2, 0]",4,"[1, 3, 4]",7328,Some of the symbols are ticks.
,"[0, 1]",exh-only,,1,"[0, 0, 0]",1,True,"[0, 1]",1,True,undefined,1448,1,12.117516666666667,"[9, 8, 4]",1,There is a circle.,There is a note.,0,"[0, 0, 0]",,True,filler,,,2,"[7, 5, 0]",4,"[8, 7, 6]",4680,There is a triangle.
,"[0, 1]",exh-only,,1,"[0, 0, 0]",1,True,"[0, 1]",1,True,undefined,1487,1,12.117516666666667,"[7, 9, 0]",1,There is a square.,There is a star.,0,"[0, 0, 0]",,True,filler,,,2,"[5, 3, 7]",4,"[6, 8, 1]",6072,There is a circle.
,"[1, 0]",exh-only,,1,"[0, 0, 0]",1,True,"[0, 1]",1,True,undefined,2824,0,12.117516666666667,"[4, 8, 0]",0,Some of the symbols are squares.,Some of the symbols are squares.,1,"[0, 0, 0]",,True,response,,,0,"[5, 6, 8]",4,"[5, 7, 6]",6160,Some of the symbols are hearts.
,"[0, 1]",exh-only,,1,"[0, 0, 0]",1,True,"[0, 1]",1,True,undefined,2615,1,12.117516666666667,"[2, 6, 0]",1,Some of the symbols are ticks.,Some of the symbols are circles.,0,"[0, 0, 0]",,True,response,,,0,"[2, 9, 5]",4,"[7, 4, 9]",6751,Some of the symbols are ticks.
,"[0, 1]",exh-only,,0,"[0, 0, 0]",1,True,"[1, 0]",0,True,undefined,1839,1,12.117516666666667,"[2, 6, 9]",1,There are four diamonds.,There are four triangles.,1,"[0, 0, 0]",,True,response,,,1,"[0, 8, 1]",4,"[9, 2, 1]",4695,There are four ticks.
,"[1, 0]",exh-only,,0,"[0, 0, 0]",0,True,"[1, 0]",0,True,undefined,2063,0,12.117516666666667,"[4, 9, 0]",0,There is only a diamond.,There is a star.,2,"[0, 0, 0]",,True,response,,,2,"[0, 8, 5]",4,"[6, 3, 9]",5120,There is only a heart.
,"[0, 1]",exh-only,,0,"[0, 0, 0]",1,True,"[1, 0]",0,True,undefined,2383,1,12.117516666666667,"[9, 0, 1]",1,Only some of the symbols are ticks.,Some of the symbols are stars.,2,"[0, 0, 0]",,True,response,,,0,"[2, 4, 1]",4,"[6, 9, 4]",8016,Only some of the symbols are triangles.
,"[1, 0]",exh-only,,0,"[2, 0, 0]",1,False,"[1, 0]",1,False,undefined,1253,0,12.117516666666667,"[14, 5, 9]",0,3 + 7 = ?,There are four stars.,3,"[8, 0, 0]",,True,filler,,,1,"[10, 3, 7]",4,"[6, 9, 2]",4924,5 + 9 = ?
,"[0, 1]",exh-only,,1,"[0, 0, 0]",1,True,"[0, 1]",1,True,undefined,1152,1,12.117516666666667,"[7, 8, 1]",1,There are only four triangles.,There are four clubs.,2,"[0, 0, 0]",,True,filler,,,1,"[9, 0, 1]",4,"[1, 5, 3]",3633,There are only four circles.
,"[0, 1]",exh-only,,1,"[0, 0, 0]",1,True,"[0, 1]",1,True,undefined,2903,1,12.117516666666667,"[3, 1, 7]",1,Only some of the symbols are stars.,Some of the symbols are clubs.,2,"[0, 0, 0]",,True,filler,,,0,"[6, 4, 3]",4,"[1, 2, 9]",8055,Only some of the symbols are spades.
