btwncondition,correctPChoices,responseSentence,correctPTChoice,pOSentence,primeType,response,block_rt,slide_number,image,primeTShuffle,pTwrongAnswer,response_rt,pOChoice,responseSymbols,pOwrongAnswer,pTSymbols,audio,Answer.time_in_minutes,pOSymbols,primeStrength,primeOShuffle,pTChoice,goodPTChoice,Answer.condition,goodPOChoice,slide_type,pTSentence,responseChoice,trial_type,workerid,correctPOChoice
,,,,,,"[0, 'Linda']",,1,Linda,,,,,,,,,11.069633333333334,,,,,,undefined,,bot_check,,,,0,
exh-only,True,There is a diamond.,True,There is a star.,2,,7950,,,"[1, 0]","[0, 0, 0]",2425,0,"[0, 4, 3]","[0, 0, 0]","[7, 9, 3]",,11.069633333333334,"[6, 1, 5]",1,"[1, 0]",0,0,undefined,0,,There is a circle.,1,filler,0,True
exh-only,True,There is a star.,True,There is a spade.,2,,8207,,,"[1, 0]","[0, 0, 0]",4622,0,"[6, 2, 7]","[0, 0, 0]","[2, 5, 7]",,11.069633333333334,"[3, 5, 2]",1,"[1, 0]",0,0,undefined,0,,There is a tick.,0,response,0,True
exh-only,True,There is a spade.,True,There is a club.,2,,10087,,,"[0, 1]","[0, 0, 0]",2255,0,"[3, 6, 2]","[0, 0, 0]","[5, 3, 8]",,11.069633333333334,"[1, 3, 0]",1,"[1, 0]",1,1,undefined,0,,There is a square.,0,response,0,True
exh-only,False,There are four spades.,True,1 + 1 = ?,1,,6275,,,"[0, 1]","[2, 0, 0]",1903,0,"[3, 6, 5]","[3, 0, 0]","[8, 7, 1]",,11.069633333333334,"[2, 1, 1]",3,"[0, 1]",1,1,undefined,1,,7 + 1 = ?,1,filler,0,False
exh-only,True,There are four hearts.,True,There are four circles.,1,,7193,,,"[0, 1]","[0, 0, 0]",1774,0,"[4, 3, 8]","[0, 0, 0]","[7, 4, 2]",,11.069633333333334,"[7, 1, 9]",0,"[1, 0]",1,1,undefined,0,,There are four circles.,1,filler,0,True
exh-only,True,Some of the symbols are circles.,True,4 + 4 = ?,0,,8750,,,"[1, 0]","[4, 0, 0]",3246,1,"[7, 9, 6]","[6, 0, 0]","[12, 7, 5]",,11.069633333333334,"[8, 4, 4]",3,"[0, 1]",0,0,undefined,1,,7 + 5 = ?,1,filler,0,True
exh-only,True,There is a tick.,True,There is only a square.,2,,6166,,,"[0, 1]","[0, 0, 0]",1894,1,"[2, 6, 8]","[0, 0, 0]","[1, 2, 3]",,11.069633333333334,"[5, 3, 1]",2,"[0, 1]",1,1,undefined,1,,There is only a club.,1,filler,0,True
exh-only,True,There are four hearts.,True,There are four squares.,1,,5928,,,"[0, 1]","[0, 0, 0]",1783,1,"[4, 6, 7]","[0, 0, 0]","[5, 4, 8]",,11.069633333333334,"[5, 2, 7]",0,"[0, 1]",1,1,undefined,1,,There are four squares.,0,response,0,True
exh-only,True,Some of the symbols are stars.,True,Only some of the symbols are squares.,0,,7783,,,"[1, 0]","[0, 0, 0]",2230,1,"[6, 7, 3]","[0, 0, 0]","[4, 9, 1]",,11.069633333333334,"[5, 8, 7]",2,"[0, 1]",0,0,undefined,1,,Only some of the symbols are hearts.,1,filler,0,True
exh-only,True,Some of the symbols are triangles.,True,Some of the symbols are diamonds.,0,,8174,,,"[0, 1]","[0, 0, 0]",3277,1,"[9, 1, 0]","[0, 0, 0]","[6, 0, 2]",,11.069633333333334,"[0, 6, 1]",0,"[0, 1]",1,1,undefined,1,,Some of the symbols are stars.,1,response,0,True
exh-only,True,There is a circle.,True,There is a club.,2,,5032,,,"[1, 0]","[0, 0, 0]",1621,0,"[7, 5, 1]","[0, 0, 0]","[5, 4, 3]",,11.069633333333334,"[1, 7, 4]",0,"[1, 0]",0,0,undefined,0,,There is a square.,1,filler,0,True
exh-only,False,There is a triangle.,True,2 + 1 = ?,2,,5136,,,"[0, 1]","[2, 0, 0]",1863,0,"[9, 2, 1]","[0, 0, 0]","[7, 0, 7]",,11.069633333333334,"[3, 2, 1]",3,"[0, 1]",1,1,undefined,1,,0 + 7 = ?,1,filler,0,False
exh-only,True,Some of the symbols are notes.,True,Some of the symbols are notes.,0,,6791,,,"[1, 0]","[0, 0, 0]",2302,1,"[8, 7, 3]","[0, 0, 0]","[7, 0, 9]",,11.069633333333334,"[8, 2, 5]",1,"[0, 1]",0,0,undefined,1,,Some of the symbols are circles.,1,filler,0,True
exh-only,False,There are four stars.,False,1 + 0 = ?,1,,5392,,,"[0, 1]","[0, 0, 0]",1847,1,"[6, 1, 7]","[0, 0, 0]","[4, 4, 0]",,11.069633333333334,"[1, 1, 0]",3,"[1, 0]",0,1,undefined,0,,4 + 0 = ?,1,filler,0,False
exh-only,True,There are four triangles.,True,There are four notes.,1,,4215,,,"[1, 0]","[0, 0, 0]",1343,0,"[9, 3, 2]","[0, 0, 0]","[2, 8, 5]",,11.069633333333334,"[8, 9, 5]",0,"[1, 0]",0,0,undefined,0,,There are four ticks.,1,filler,0,True
exh-only,True,There is a tick.,True,There is a triangle.,2,,5183,,,"[1, 0]","[0, 0, 0]",1502,0,"[2, 6, 1]","[0, 0, 0]","[6, 0, 8]",,11.069633333333334,"[9, 1, 0]",0,"[1, 0]",0,0,undefined,0,,There is a star.,1,filler,0,True
exh-only,True,There is a heart.,True,There is a heart.,2,,5110,,,"[1, 0]","[0, 0, 0]",2830,0,"[4, 9, 3]","[0, 0, 0]","[2, 4, 5]",,11.069633333333334,"[4, 5, 0]",1,"[1, 0]",0,0,undefined,0,,There is a tick.,0,response,0,True
exh-only,True,Some of the symbols are spades.,True,Some of the symbols are spades.,0,,14321,,,"[1, 0]","[0, 0, 0]",2159,1,"[3, 6, 0]","[0, 0, 0]","[2, 3, 0]",,11.069633333333334,"[3, 0, 6]",0,"[0, 1]",0,0,undefined,1,,Some of the symbols are ticks.,1,response,0,True
exh-only,True,Some of the symbols are diamonds.,True,Some of the symbols are clubs.,0,,6200,,,"[0, 1]","[0, 0, 0]",1737,0,"[0, 2, 9]","[0, 0, 0]","[2, 8, 7]",,11.069633333333334,"[1, 6, 4]",1,"[1, 0]",1,1,undefined,0,,Some of the symbols are ticks.,1,filler,0,True
exh-only,True,Some of the symbols are squares.,True,Some of the symbols are notes.,0,,4607,,,"[0, 1]","[0, 0, 0]",1783,1,"[5, 8, 4]","[0, 0, 0]","[0, 3, 2]",,11.069633333333334,"[8, 0, 6]",0,"[0, 1]",1,1,undefined,1,,Some of the symbols are diamonds.,1,response,0,True
exh-only,True,Some of the symbols are stars.,True,8 + 6 = ?,0,,5568,,,"[1, 0]","[6, 0, 0]",1927,1,"[6, 2, 0]","[3, 0, 0]","[9, 6, 3]",,11.069633333333334,"[14, 8, 6]",3,"[0, 1]",0,0,undefined,1,,6 + 3 = ?,1,response,0,True
exh-only,True,There are four spades.,True,3 + 2 = ?,1,,5224,,,"[1, 0]","[0, 0, 0]",1695,1,"[3, 2, 7]","[9, 0, 0]","[9, 7, 2]",,11.069633333333334,"[5, 3, 2]",3,"[0, 1]",0,0,undefined,1,,7 + 2 = ?,1,filler,0,True
exh-only,True,Some of the symbols are stars.,True,Some of the symbols are hearts.,0,,4759,,,"[1, 0]","[0, 0, 0]",1527,1,"[6, 7, 1]","[0, 0, 0]","[0, 3, 6]",,11.069633333333334,"[4, 5, 9]",0,"[0, 1]",0,0,undefined,1,,Some of the symbols are diamonds.,1,filler,0,True
exh-only,True,There are four hearts.,True,There are four spades.,1,,5135,,,"[1, 0]","[0, 0, 0]",1230,1,"[4, 0, 8]","[0, 0, 0]","[6, 9, 5]",,11.069633333333334,"[3, 6, 8]",1,"[0, 1]",0,0,undefined,1,,There are four stars.,1,filler,0,True
exh-only,True,There are four stars.,True,There are only four notes.,1,,5296,,,"[0, 1]","[0, 0, 0]",2735,1,"[6, 2, 5]","[0, 0, 0]","[2, 3, 9]",,11.069633333333334,"[8, 7, 5]",2,"[0, 1]",1,1,undefined,1,,There are only four ticks.,1,response,0,True
exh-only,True,There is a note.,True,There is a square.,2,,8424,,,"[0, 1]","[0, 0, 0]",2392,1,"[8, 9, 0]","[0, 0, 0]","[5, 9, 4]",,11.069633333333334,"[5, 2, 9]",1,"[0, 1]",1,1,undefined,1,,There is a square.,1,response,0,True
exh-only,True,There is a spade.,True,There is a triangle.,2,,18984,,,"[0, 1]","[0, 0, 0]",1634,0,"[3, 8, 0]","[0, 0, 0]","[8, 3, 2]",,11.069633333333334,"[9, 5, 0]",0,"[1, 0]",1,1,undefined,0,,There is a note.,1,filler,0,True
exh-only,True,There are four ticks.,True,There are four diamonds.,1,,7112,,,"[0, 1]","[0, 0, 0]",4039,1,"[2, 4, 9]","[0, 0, 0]","[1, 6, 9]",,11.069633333333334,"[0, 4, 5]",0,"[0, 1]",1,1,undefined,1,,There are four clubs.,1,filler,0,True
exh-only,True,Some of the symbols are notes.,True,Only some of the symbols are notes.,0,,4592,,,"[0, 1]","[0, 0, 0]",1415,0,"[8, 6, 5]","[0, 0, 0]","[5, 6, 4]",,11.069633333333334,"[8, 4, 7]",2,"[1, 0]",1,1,undefined,0,,Only some of the symbols are squares.,1,filler,0,True
exh-only,True,There are four clubs.,True,There are four squares.,1,,3591,,,"[1, 0]","[0, 0, 0]",1472,0,"[1, 9, 8]","[0, 0, 0]","[7, 1, 9]",,11.069633333333334,"[5, 8, 3]",1,"[1, 0]",0,0,undefined,0,,There are four circles.,1,response,0,True
exh-only,True,There are four notes.,True,There are four squares.,1,,4654,,,"[0, 1]","[0, 0, 0]",1549,0,"[8, 4, 6]","[0, 0, 0]","[9, 5, 3]",,11.069633333333334,"[5, 4, 7]",0,"[1, 0]",1,1,undefined,0,,There are four triangles.,1,response,0,True
exh-only,False,There is a star.,False,0 + 3 = ?,2,,5016,,,"[1, 0]","[4, 0, 0]",1880,0,"[6, 5, 2]","[4, 0, 0]","[6, 5, 1]",,11.069633333333334,"[3, 0, 3]",3,"[0, 1]",1,0,undefined,1,,5 + 1 = ?,1,response,0,False
exh-only,False,Some of the symbols are hearts.,False,9 + 3 = ?,0,,18337,,,"[1, 0]","[3, 0, 0]",1799,0,"[4, 1, 9]","[3, 0, 0]","[6, 3, 3]",,11.069633333333334,"[12, 9, 3]",3,"[1, 0]",1,0,undefined,0,,3 + 3 = ?,1,response,0,True
exh-only,False,Some of the symbols are notes.,False,5 + 4 = ?,0,,9728,,,"[0, 1]","[4, 0, 0]",3128,1,"[8, 9, 0]","[2, 0, 0]","[11, 4, 7]",,11.069633333333334,"[9, 5, 4]",3,"[0, 1]",0,1,undefined,1,,4 + 7 = ?,1,filler,0,True
exh-only,True,There is a heart.,True,There is only a star.,2,,12752,,,"[1, 0]","[0, 0, 0]",1663,1,"[4, 1, 5]","[0, 0, 0]","[4, 6, 8]",,11.069633333333334,"[6, 9, 4]",2,"[0, 1]",0,0,undefined,1,,There is only a heart.,1,response,0,True
exh-only,True,Some of the symbols are ticks.,True,Only some of the symbols are ticks.,0,,6335,,,"[1, 0]","[0, 0, 0]",2374,1,"[2, 7, 5]","[0, 0, 0]","[8, 9, 5]",,11.069633333333334,"[2, 3, 6]",2,"[0, 1]",0,0,undefined,1,,Only some of the symbols are notes.,1,response,0,True
exh-only,True,There are four circles.,True,There are four spades.,1,,3720,,,"[1, 0]","[0, 0, 0]",1263,1,"[7, 1, 3]","[0, 0, 0]","[1, 8, 7]",,11.069633333333334,"[3, 9, 7]",1,"[0, 1]",0,0,undefined,1,,There are four clubs.,1,filler,0,True
exh-only,True,There are four ticks.,True,There are four diamonds.,1,,4481,,,"[1, 0]","[0, 0, 0]",1295,0,"[2, 7, 0]","[0, 0, 0]","[7, 1, 5]",,11.069633333333334,"[0, 5, 4]",0,"[1, 0]",0,0,undefined,0,,There are four circles.,1,response,0,True
exh-only,True,There is a diamond.,True,There is a circle.,2,,4271,,,"[0, 1]","[0, 0, 0]",1320,0,"[0, 7, 2]","[0, 0, 0]","[0, 6, 9]",,11.069633333333334,"[7, 8, 6]",1,"[1, 0]",1,1,undefined,0,,There is a diamond.,1,filler,0,True
exh-only,False,There are four clubs.,True,9 + 9 = ?,1,,3904,,,"[1, 0]","[1, 0, 0]",1326,1,"[1, 2, 8]","[5, 0, 0]","[4, 3, 1]",,11.069633333333334,"[18, 9, 9]",3,"[1, 0]",0,0,undefined,0,,3 + 1 = ?,1,response,0,False
exh-only,True,There are four spades.,True,There are only four ticks.,1,,3785,,,"[0, 1]","[0, 0, 0]",1495,1,"[3, 4, 0]","[0, 0, 0]","[2, 0, 8]",,11.069633333333334,"[2, 9, 6]",2,"[0, 1]",1,1,undefined,1,,There are only four ticks.,1,response,0,True
exh-only,True,There is a tick.,True,There is only a circle.,2,,4215,,,"[1, 0]","[0, 0, 0]",1782,1,"[2, 0, 1]","[0, 0, 0]","[3, 2, 6]",,11.069633333333334,"[7, 4, 3]",2,"[0, 1]",0,0,undefined,1,,There is only a spade.,1,filler,0,True
exh-only,True,There is a heart.,True,There is a spade.,2,,15071,,,"[0, 1]","[0, 0, 0]",11462,1,"[4, 3, 1]","[0, 0, 0]","[3, 0, 9]",,11.069633333333334,"[3, 5, 2]",0,"[0, 1]",1,1,undefined,1,,There is a spade.,1,response,0,True
exh-only,False,There is a diamond.,False,9 + 5 = ?,2,,4895,,,"[1, 0]","[6, 0, 0]",2093,0,"[0, 3, 1]","[9, 0, 0]","[1, 0, 1]",,11.069633333333334,"[14, 9, 5]",3,"[1, 0]",1,0,undefined,0,,0 + 1 = ?,1,filler,0,True
exh-only,True,There is a tick.,True,4 + 4 = ?,2,,5689,,,"[1, 0]","[1, 0, 0]",1695,1,"[2, 4, 6]","[6, 0, 0]","[17, 9, 8]",,11.069633333333334,"[8, 4, 4]",3,"[0, 1]",0,0,undefined,1,,9 + 8 = ?,1,response,0,True
exh-only,False,There is a note.,False,1 + 9 = ?,2,,5160,,,"[1, 0]","[2, 0, 0]",1768,0,"[8, 6, 2]","[7, 0, 0]","[11, 6, 5]",,11.069633333333334,"[10, 1, 9]",3,"[1, 0]",1,0,undefined,0,,6 + 5 = ?,1,filler,0,True
exh-only,True,There are four triangles.,True,There are only four stars.,1,,3591,,,"[1, 0]","[0, 0, 0]",1367,0,"[9, 8, 5]","[0, 0, 0]","[9, 5, 2]",,11.069633333333334,"[6, 9, 8]",2,"[1, 0]",0,0,undefined,0,,There are only four triangles.,1,response,0,True
exh-only,True,There are four triangles.,True,There are four ticks.,1,,2983,,,"[1, 0]","[0, 0, 0]",1102,0,"[9, 4, 6]","[0, 0, 0]","[7, 1, 0]",,11.069633333333334,"[2, 9, 1]",1,"[1, 0]",0,0,undefined,0,,There are four circles.,1,response,0,True
exh-only,True,Some of the symbols are diamonds.,True,Some of the symbols are squares.,0,,4703,,,"[1, 0]","[0, 0, 0]",1949,1,"[0, 3, 5]","[0, 0, 0]","[7, 2, 9]",,11.069633333333334,"[5, 0, 6]",1,"[0, 1]",0,0,undefined,1,,Some of the symbols are circles.,1,filler,0,True
exh-only,True,Some of the symbols are circles.,True,Some of the symbols are stars.,0,,4697,,,"[0, 1]","[0, 0, 0]",1223,1,"[7, 6, 2]","[0, 0, 0]","[4, 6, 3]",,11.069633333333334,"[6, 5, 3]",1,"[0, 1]",1,1,undefined,1,,Some of the symbols are hearts.,1,response,0,True
exh-only,True,Some of the symbols are hearts.,True,Only some of the symbols are spades.,0,,20823,,,"[0, 1]","[0, 0, 0]",1407,1,"[4, 6, 9]","[0, 0, 0]","[9, 6, 5]",,11.069633333333334,"[3, 0, 2]",2,"[0, 1]",1,1,undefined,1,,Only some of the symbols are triangles.,1,filler,0,True
exh-only,True,There are four clubs.,True,There are four notes.,1,,3415,,,"[0, 1]","[0, 0, 0]",1446,1,"[1, 3, 7]","[0, 0, 0]","[5, 3, 0]",,11.069633333333334,"[8, 2, 5]",1,"[0, 1]",1,1,undefined,1,,There are four squares.,1,filler,0,True
exh-only,True,There is a triangle.,True,There is only a heart.,2,,3584,,,"[1, 0]","[0, 0, 0]",1422,0,"[9, 2, 1]","[0, 0, 0]","[2, 9, 5]",,11.069633333333334,"[4, 8, 3]",2,"[1, 0]",0,0,undefined,0,,There is only a tick.,1,filler,0,True
exh-only,True,There are four hearts.,True,There are only four notes.,1,,3600,,,"[0, 1]","[0, 0, 0]",1135,0,"[4, 5, 3]","[0, 0, 0]","[7, 4, 5]",,11.069633333333334,"[8, 1, 5]",2,"[1, 0]",1,1,undefined,0,,There are only four circles.,1,filler,0,True
exh-only,True,Some of the symbols are circles.,True,Some of the symbols are hearts.,0,,5272,,,"[0, 1]","[0, 0, 0]",1895,0,"[7, 9, 6]","[0, 0, 0]","[0, 6, 5]",,11.069633333333334,"[4, 0, 6]",1,"[1, 0]",1,1,undefined,0,,Some of the symbols are diamonds.,1,response,0,True
exh-only,True,There is a square.,True,There is only a spade.,2,,4064,,,"[1, 0]","[0, 0, 0]",1727,1,"[5, 3, 1]","[0, 0, 0]","[0, 6, 1]",,11.069633333333334,"[3, 7, 9]",2,"[0, 1]",0,0,undefined,1,,There is only a diamond.,1,response,0,True
exh-only,False,Some of the symbols are clubs.,False,7 + 5 = ?,0,,4783,,,"[0, 1]","[6, 0, 0]",2071,1,"[1, 9, 3]","[5, 0, 0]","[13, 8, 5]",,11.069633333333334,"[12, 7, 5]",3,"[0, 1]",0,1,undefined,1,,8 + 5 = ?,1,response,0,True
exh-only,True,There are four spades.,True,There are only four hearts.,1,,3144,,,"[1, 0]","[0, 0, 0]",1038,0,"[3, 6, 7]","[0, 0, 0]","[2, 5, 3]",,11.069633333333334,"[4, 8, 7]",2,"[1, 0]",0,0,undefined,0,,There are only four ticks.,1,filler,0,True
exh-only,True,Some of the symbols are notes.,True,Some of the symbols are clubs.,0,,3904,,,"[0, 1]","[0, 0, 0]",1599,0,"[8, 4, 2]","[0, 0, 0]","[7, 5, 0]",,11.069633333333334,"[1, 4, 2]",1,"[1, 0]",1,1,undefined,0,,Some of the symbols are circles.,1,response,0,True
exh-only,True,There is a heart.,True,There is only a square.,2,,3223,,,"[1, 0]","[0, 0, 0]",1070,1,"[4, 8, 2]","[0, 0, 0]","[2, 5, 1]",,11.069633333333334,"[5, 7, 9]",2,"[0, 1]",0,0,undefined,1,,There is only a tick.,1,response,0,True
exh-only,True,There are four ticks.,True,9 + 4 = ?,1,,5128,,,"[1, 0]","[2, 0, 0]",2615,1,"[2, 9, 3]","[6, 0, 0]","[7, 5, 2]",,11.069633333333334,"[13, 9, 4]",3,"[0, 1]",0,0,undefined,1,,5 + 2 = ?,1,response,0,True
exh-only,True,There are four notes.,True,There are only four squares.,1,,7408,,,"[0, 1]","[0, 0, 0]",4238,0,"[8, 0, 7]","[0, 0, 0]","[3, 0, 6]",,11.069633333333334,"[5, 2, 3]",2,"[1, 0]",1,1,undefined,0,,There are only four spades.,1,filler,0,True
exh-only,True,Some of the symbols are triangles.,True,Only some of the symbols are diamonds.,0,,6808,,,"[0, 1]","[0, 0, 0]",2550,1,"[9, 5, 8]","[0, 0, 0]","[4, 8, 3]",,11.069633333333334,"[0, 6, 7]",2,"[0, 1]",1,1,undefined,1,,Only some of the symbols are hearts.,1,response,0,True
exh-only,True,There are four triangles.,True,3 + 8 = ?,1,,3799,,,"[0, 1]","[9, 0, 0]",1214,0,"[9, 8, 1]","[0, 0, 0]","[12, 9, 3]",,11.069633333333334,"[11, 3, 8]",3,"[1, 0]",1,1,undefined,0,,9 + 3 = ?,1,response,0,True
exh-only,True,There are four ticks.,True,There are four triangles.,1,,3073,,,"[0, 1]","[0, 0, 0]",1175,0,"[2, 0, 6]","[0, 0, 0]","[5, 0, 2]",,11.069633333333334,"[9, 8, 0]",1,"[1, 0]",1,1,undefined,0,,There are four squares.,1,response,0,True
exh-only,True,There is a tick.,True,There is a heart.,2,,3958,,,"[1, 0]","[0, 0, 0]",1645,0,"[2, 9, 3]","[0, 0, 0]","[7, 9, 2]",,11.069633333333334,"[4, 2, 5]",1,"[1, 0]",0,0,undefined,0,,There is a circle.,1,filler,0,True
exh-only,True,There are four ticks.,True,There are four spades.,1,,3625,,,"[0, 1]","[0, 0, 0]",1063,1,"[2, 7, 0]","[0, 0, 0]","[3, 6, 2]",,11.069633333333334,"[3, 1, 5]",0,"[0, 1]",1,1,undefined,1,,There are four spades.,1,response,0,True
exh-only,True,There is a spade.,True,There is a star.,2,,3208,,,"[0, 1]","[0, 0, 0]",927,0,"[3, 2, 8]","[0, 0, 0]","[2, 5, 1]",,11.069633333333334,"[6, 3, 4]",1,"[1, 0]",1,1,undefined,0,,There is a tick.,1,filler,0,True
exh-only,True,Some of the symbols are stars.,True,Some of the symbols are squares.,0,,4960,,,"[0, 1]","[0, 0, 0]",1575,0,"[6, 0, 2]","[0, 0, 0]","[8, 9, 2]",,11.069633333333334,"[5, 2, 9]",0,"[1, 0]",1,1,undefined,0,,Some of the symbols are notes.,1,filler,0,True
exh-only,True,Some of the symbols are stars.,True,Only some of the symbols are hearts.,0,,4695,,,"[0, 1]","[0, 0, 0]",1582,0,"[6, 7, 2]","[0, 0, 0]","[5, 8, 9]",,11.069633333333334,"[4, 6, 5]",2,"[1, 0]",1,1,undefined,0,,Only some of the symbols are squares.,1,filler,0,True
exh-only,True,There are four diamonds.,True,There are four hearts.,1,,3471,,,"[0, 1]","[0, 0, 0]",1055,1,"[0, 2, 3]","[0, 0, 0]","[5, 1, 2]",,11.069633333333334,"[4, 7, 9]",0,"[0, 1]",1,1,undefined,1,,There are four squares.,1,filler,0,True
exh-only,True,There are four ticks.,True,8 + 4 = ?,1,,3776,,,"[0, 1]","[3, 0, 0]",1703,0,"[2, 7, 6]","[6, 0, 0]","[14, 6, 8]",,11.069633333333334,"[12, 8, 4]",3,"[1, 0]",1,1,undefined,0,,6 + 8 = ?,0,response,0,True
exh-only,True,Some of the symbols are circles.,True,Some of the symbols are stars.,0,,3736,,,"[0, 1]","[0, 0, 0]",1477,0,"[7, 3, 0]","[0, 0, 0]","[2, 7, 6]",,11.069633333333334,"[6, 7, 8]",1,"[1, 0]",1,1,undefined,0,,Some of the symbols are ticks.,1,response,0,True
exh-only,True,Some of the symbols are circles.,True,Some of the symbols are hearts.,0,,4697,,,"[0, 1]","[0, 0, 0]",1367,1,"[7, 1, 9]","[0, 0, 0]","[0, 1, 2]",,11.069633333333334,"[4, 2, 1]",0,"[0, 1]",1,1,undefined,1,,Some of the symbols are diamonds.,1,response,0,True
exh-only,True,There is a triangle.,True,There is a club.,2,,5807,,,"[1, 0]","[0, 0, 0]",1463,0,"[9, 5, 1]","[0, 0, 0]","[4, 6, 1]",,11.069633333333334,"[1, 3, 5]",0,"[1, 0]",0,0,undefined,0,,There is a heart.,1,filler,0,True
exh-only,True,There are four squares.,True,There are only four stars.,1,,3592,,,"[0, 1]","[0, 0, 0]",1190,0,"[5, 6, 2]","[0, 0, 0]","[7, 9, 1]",,11.069633333333334,"[6, 9, 3]",2,"[1, 0]",1,1,undefined,0,,There are only four circles.,1,filler,0,True
exh-only,True,There are four squares.,True,There are only four circles.,1,,5455,,,"[0, 1]","[0, 0, 0]",1767,0,"[5, 3, 6]","[0, 0, 0]","[7, 0, 8]",,11.069633333333334,"[7, 2, 6]",2,"[1, 0]",1,1,undefined,0,,There are only four circles.,1,response,0,True
exh-only,True,Some of the symbols are diamonds.,True,Some of the symbols are triangles.,0,,6432,,,"[0, 1]","[0, 0, 0]",1464,1,"[0, 7, 3]","[0, 0, 0]","[8, 1, 7]",,11.069633333333334,"[9, 2, 4]",0,"[0, 1]",1,1,undefined,1,,Some of the symbols are notes.,1,filler,0,True
exh-only,False,There is a heart.,True,4 + 4 = ?,2,,3975,,,"[0, 1]","[7, 0, 0]",1239,0,"[4, 6, 0]","[3, 0, 0]","[10, 9, 1]",,11.069633333333334,"[8, 4, 4]",3,"[0, 1]",1,1,undefined,1,,9 + 1 = ?,1,filler,0,False
exh-only,True,Some of the symbols are clubs.,True,Some of the symbols are circles.,0,,5232,,,"[1, 0]","[0, 0, 0]",1048,0,"[1, 6, 2]","[0, 0, 0]","[7, 3, 9]",,11.069633333333334,"[7, 4, 5]",0,"[1, 0]",0,0,undefined,0,,Some of the symbols are circles.,1,filler,0,True
exh-only,False,There are four hearts.,True,1 + 2 = ?,1,,3359,,,"[1, 0]","[2, 0, 0]",1207,1,"[4, 3, 9]","[5, 0, 0]","[10, 7, 3]",,11.069633333333334,"[3, 1, 2]",3,"[1, 0]",0,0,undefined,0,,7 + 3 = ?,1,filler,0,False
exh-only,False,Some of the symbols are squares.,False,6 + 1 = ?,0,,3897,,,"[1, 0]","[9, 0, 0]",1383,0,"[5, 3, 0]","[1, 0, 0]","[5, 4, 1]",,11.069633333333334,"[7, 6, 1]",3,"[0, 1]",1,0,undefined,1,,4 + 1 = ?,0,response,0,False
exh-only,True,There is a spade.,True,There is a club.,2,,5344,,,"[0, 1]","[0, 0, 0]",1807,0,"[3, 4, 8]","[0, 0, 0]","[3, 4, 7]",,11.069633333333334,"[1, 2, 5]",0,"[1, 0]",1,1,undefined,0,,There is a spade.,1,response,0,True
exh-only,False,There is a tick.,True,9 + 9 = ?,2,,4551,,,"[1, 0]","[8, 0, 0]",1966,1,"[2, 8, 4]","[4, 0, 0]","[7, 0, 7]",,11.069633333333334,"[18, 9, 9]",3,"[1, 0]",0,0,undefined,0,,0 + 7 = ?,0,response,0,False
exh-only,True,There is a square.,True,There is only a note.,2,,6239,,,"[1, 0]","[0, 0, 0]",1942,0,"[5, 0, 2]","[0, 0, 0]","[5, 6, 0]",,11.069633333333334,"[8, 0, 1]",2,"[1, 0]",0,0,undefined,0,,There is only a square.,1,response,0,True
exh-only,True,There are four diamonds.,True,There are four ticks.,1,,4048,,,"[1, 0]","[0, 0, 0]",1270,1,"[0, 4, 7]","[0, 0, 0]","[4, 6, 0]",,11.069633333333334,"[2, 4, 8]",1,"[0, 1]",0,0,undefined,1,,There are four hearts.,1,filler,0,True
exh-only,True,Some of the symbols are diamonds.,True,6 + 4 = ?,0,,4872,,,"[1, 0]","[4, 0, 0]",1791,1,"[0, 1, 5]","[3, 0, 0]","[12, 3, 9]",,11.069633333333334,"[10, 6, 4]",3,"[0, 1]",0,0,undefined,1,,3 + 9 = ?,1,filler,0,True
exh-only,True,There is a square.,True,There is a spade.,2,,6488,,,"[1, 0]","[0, 0, 0]",1654,0,"[5, 9, 6]","[0, 0, 0]","[1, 8, 6]",,11.069633333333334,"[3, 8, 1]",0,"[1, 0]",0,0,undefined,0,,There is a club.,1,response,0,True
exh-only,False,Some of the symbols are diamonds.,False,9 + 4 = ?,0,,4408,,,"[1, 0]","[1, 0, 0]",1478,0,"[0, 2, 4]","[7, 0, 0]","[2, 0, 2]",,11.069633333333334,"[13, 9, 4]",3,"[0, 1]",1,0,undefined,1,,0 + 2 = ?,1,filler,0,False
exh-only,True,There is a tick.,True,0 + 9 = ?,2,,4200,,,"[0, 1]","[1, 0, 0]",1536,0,"[2, 9, 3]","[6, 0, 0]","[11, 9, 2]",,11.069633333333334,"[9, 0, 9]",3,"[1, 0]",1,1,undefined,0,,9 + 2 = ?,1,response,0,True
exh-only,True,Some of the symbols are hearts.,True,Some of the symbols are ticks.,0,,4038,,,"[0, 1]","[0, 0, 0]",1406,1,"[4, 0, 1]","[0, 0, 0]","[3, 5, 0]",,11.069633333333334,"[2, 1, 6]",1,"[0, 1]",1,1,undefined,1,,Some of the symbols are spades.,1,filler,0,True
exh-only,True,Some of the symbols are ticks.,True,Only some of the symbols are hearts.,0,,3888,,,"[1, 0]","[0, 0, 0]",1335,0,"[2, 9, 7]","[0, 0, 0]","[3, 7, 0]",,11.069633333333334,"[4, 9, 2]",2,"[1, 0]",0,0,undefined,0,,Only some of the symbols are spades.,1,response,0,True
exh-only,True,There is a diamond.,True,There is only a note.,2,,3671,,,"[0, 1]","[0, 0, 0]",1390,1,"[0, 5, 2]","[0, 0, 0]","[8, 0, 3]",,11.069633333333334,"[8, 9, 7]",2,"[0, 1]",1,1,undefined,1,,There is only a note.,1,filler,0,True
exh-only,True,There is a star.,True,There is a square.,2,,3648,,,"[0, 1]","[0, 0, 0]",1511,0,"[6, 8, 9]","[0, 0, 0]","[7, 2, 5]",,11.069633333333334,"[5, 2, 8]",0,"[1, 0]",1,1,undefined,0,,There is a circle.,1,response,0,True
exh-only,True,Some of the symbols are hearts.,True,Only some of the symbols are triangles.,0,,6063,,,"[1, 0]","[0, 0, 0]",2197,1,"[4, 0, 2]","[0, 0, 0]","[1, 0, 4]",,11.069633333333334,"[9, 2, 3]",2,"[0, 1]",0,0,undefined,1,,Only some of the symbols are clubs.,1,response,0,True
exh-only,True,There are four spades.,True,There are four squares.,1,,3713,,,"[1, 0]","[0, 0, 0]",1551,1,"[3, 5, 6]","[0, 0, 0]","[0, 2, 5]",,11.069633333333334,"[5, 0, 1]",1,"[0, 1]",0,0,undefined,1,,There are four diamonds.,1,response,0,True
,,,,,,"[0, 'Jennifer']",,1,Jennifer,,,,,,,,,9.880066666666666,,,,,,undefined,,bot_check,,,,1,
exh-only,True,There are four clubs.,True,There are four circles.,1,,9769,,,"[1, 0]","[0, 0, 0]",2554,0,"[1, 3, 9]","[0, 0, 0]","[2, 4, 7]",,9.880066666666666,"[7, 4, 1]",0,"[1, 0]",0,0,undefined,0,,There are four ticks.,1,response,1,True
exh-only,False,There are four squares.,False,1 + 3 = ?,1,,5340,,,"[0, 1]","[4, 0, 0]",1589,1,"[5, 2, 8]","[6, 0, 0]","[6, 1, 5]",,9.880066666666666,"[4, 1, 3]",3,"[1, 0]",0,1,undefined,0,,1 + 5 = ?,1,filler,1,False
exh-only,True,Some of the symbols are triangles.,True,Only some of the symbols are squares.,0,,6120,,,"[1, 0]","[0, 0, 0]",1892,0,"[9, 7, 1]","[0, 0, 0]","[8, 9, 4]",,9.880066666666666,"[5, 0, 8]",2,"[1, 0]",0,0,undefined,0,,Only some of the symbols are notes.,1,filler,1,True
exh-only,True,Some of the symbols are circles.,True,Some of the symbols are spades.,0,,6434,,,"[1, 0]","[0, 0, 0]",1736,0,"[7, 2, 4]","[0, 0, 0]","[2, 6, 7]",,9.880066666666666,"[3, 0, 1]",1,"[1, 0]",0,0,undefined,0,,Some of the symbols are ticks.,1,response,1,True
exh-only,True,Some of the symbols are diamonds.,True,Some of the symbols are triangles.,0,,4770,,,"[0, 1]","[0, 0, 0]",1381,1,"[0, 7, 9]","[0, 0, 0]","[4, 3, 6]",,9.880066666666666,"[9, 6, 8]",1,"[0, 1]",1,1,undefined,1,,Some of the symbols are hearts.,1,filler,1,True
exh-only,True,Some of the symbols are circles.,True,Only some of the symbols are spades.,0,,5628,,,"[0, 1]","[0, 0, 0]",1908,1,"[7, 1, 2]","[0, 0, 0]","[0, 5, 3]",,9.880066666666666,"[3, 0, 6]",2,"[0, 1]",1,1,undefined,1,,Only some of the symbols are diamonds.,1,response,1,True
exh-only,True,There is a spade.,True,5 + 9 = ?,2,,5173,,,"[1, 0]","[2, 0, 0]",1583,1,"[3, 4, 6]","[3, 0, 0]","[8, 4, 4]",,9.880066666666666,"[14, 5, 9]",3,"[0, 1]",0,0,undefined,1,,4 + 4 = ?,1,filler,1,True
exh-only,True,There are four stars.,True,There are four ticks.,1,,4108,,,"[0, 1]","[0, 0, 0]",1195,0,"[6, 4, 7]","[0, 0, 0]","[2, 9, 3]",,9.880066666666666,"[2, 0, 7]",1,"[1, 0]",1,1,undefined,0,,There are four ticks.,1,response,1,True
exh-only,True,There are four notes.,True,There are four notes.,1,,4647,,,"[1, 0]","[0, 0, 0]",1485,1,"[8, 5, 3]","[0, 0, 0]","[1, 9, 0]",,9.880066666666666,"[8, 5, 9]",0,"[0, 1]",0,0,undefined,1,,There are four clubs.,0,response,1,True
exh-only,True,There are four ticks.,True,There are only four ticks.,1,,6298,,,"[0, 1]","[0, 0, 0]",1307,1,"[2, 8, 1]","[0, 0, 0]","[2, 3, 8]",,9.880066666666666,"[2, 0, 8]",2,"[0, 1]",1,1,undefined,1,,There are only four ticks.,1,filler,1,True
exh-only,True,There is a square.,True,There is only a spade.,2,,4664,,,"[0, 1]","[0, 0, 0]",1344,0,"[5, 7, 8]","[0, 0, 0]","[3, 0, 6]",,9.880066666666666,"[3, 2, 5]",2,"[1, 0]",1,1,undefined,0,,There is only a spade.,1,filler,1,True
exh-only,True,Some of the symbols are hearts.,True,Some of the symbols are circles.,0,,4827,,,"[1, 0]","[0, 0, 0]",1259,1,"[4, 8, 9]","[0, 0, 0]","[8, 9, 5]",,9.880066666666666,"[7, 2, 5]",1,"[0, 1]",0,0,undefined,1,,Some of the symbols are notes.,1,filler,1,True
exh-only,True,There are four notes.,True,There are four squares.,1,,5289,,,"[0, 1]","[0, 0, 0]",1980,1,"[8, 3, 5]","[0, 0, 0]","[1, 7, 6]",,9.880066666666666,"[5, 7, 4]",0,"[0, 1]",1,1,undefined,1,,There are four clubs.,1,response,1,True
exh-only,True,Some of the symbols are ticks.,True,Some of the symbols are hearts.,0,,7884,,,"[0, 1]","[0, 0, 0]",3946,0,"[2, 1, 7]","[0, 0, 0]","[3, 5, 4]",,9.880066666666666,"[4, 9, 6]",0,"[1, 0]",1,1,undefined,0,,Some of the symbols are spades.,1,response,1,True
exh-only,True,There is a circle.,True,There is a note.,2,,4928,,,"[1, 0]","[0, 0, 0]",2111,1,"[7, 3, 5]","[0, 0, 0]","[2, 5, 1]",,9.880066666666666,"[8, 7, 0]",1,"[0, 1]",0,0,undefined,1,,There is a tick.,0,response,1,True
exh-only,True,There are four squares.,True,There are four diamonds.,1,,4245,,,"[0, 1]","[0, 0, 0]",1237,0,"[5, 6, 8]","[0, 0, 0]","[6, 4, 2]",,9.880066666666666,"[0, 6, 3]",0,"[1, 0]",1,1,undefined,0,,There are four stars.,1,filler,1,True
exh-only,True,There is a circle.,True,There is a circle.,2,,3843,,,"[0, 1]","[0, 0, 0]",1267,0,"[7, 4, 3]","[0, 0, 0]","[8, 1, 9]",,9.880066666666666,"[7, 9, 8]",0,"[1, 0]",1,1,undefined,0,,There is a note.,0,response,1,True
exh-only,False,There is a diamond.,False,5 + 9 = ?,2,,5355,,,"[1, 0]","[8, 0, 0]",1088,0,"[0, 5, 8]","[0, 0, 0]","[16, 7, 9]",,9.880066666666666,"[14, 5, 9]",3,"[0, 1]",1,0,undefined,1,,7 + 9 = ?,0,response,1,False
exh-only,True,There are four ticks.,True,There are four diamonds.,1,,3203,,,"[0, 1]","[0, 0, 0]",1161,1,"[2, 9, 3]","[0, 0, 0]","[3, 8, 7]",,9.880066666666666,"[0, 6, 7]",1,"[0, 1]",1,1,undefined,1,,There are four spades.,1,response,1,True
exh-only,True,There are four spades.,True,There are only four squares.,1,,4321,,,"[0, 1]","[0, 0, 0]",1386,1,"[3, 5, 9]","[0, 0, 0]","[0, 3, 8]",,9.880066666666666,"[5, 0, 4]",2,"[0, 1]",1,1,undefined,1,,There are only four diamonds.,1,filler,1,True
exh-only,False,Some of the symbols are diamonds.,False,9 + 0 = ?,0,,4796,,,"[0, 1]","[1, 0, 0]",1921,1,"[0, 7, 1]","[4, 0, 0]","[9, 7, 2]",,9.880066666666666,"[9, 9, 0]",3,"[0, 1]",0,1,undefined,1,,7 + 2 = ?,1,response,1,True
exh-only,True,There are four squares.,True,There are four notes.,1,,3505,,,"[1, 0]","[0, 0, 0]",1173,0,"[5, 7, 1]","[0, 0, 0]","[7, 3, 1]",,9.880066666666666,"[8, 0, 9]",1,"[1, 0]",0,0,undefined,0,,There are four circles.,1,filler,1,True
exh-only,True,Some of the symbols are stars.,True,Only some of the symbols are notes.,0,,6978,,,"[1, 0]","[0, 0, 0]",2077,1,"[6, 0, 3]","[0, 0, 0]","[9, 7, 8]",,9.880066666666666,"[8, 7, 2]",2,"[0, 1]",0,0,undefined,1,,Only some of the symbols are triangles.,1,filler,1,True
exh-only,True,There is a star.,True,0 + 3 = ?,2,,4150,,,"[1, 0]","[4, 0, 0]",1276,1,"[6, 2, 0]","[1, 0, 0]","[15, 8, 7]",,9.880066666666666,"[3, 0, 3]",3,"[0, 1]",0,0,undefined,1,,8 + 7 = ?,1,filler,1,True
exh-only,True,Some of the symbols are ticks.,True,Some of the symbols are squares.,0,,4562,,,"[0, 1]","[0, 0, 0]",1687,1,"[2, 0, 3]","[0, 0, 0]","[4, 8, 2]",,9.880066666666666,"[5, 3, 6]",0,"[0, 1]",1,1,undefined,1,,Some of the symbols are hearts.,1,filler,1,True
exh-only,True,There is a square.,True,There is a heart.,2,,3504,,,"[1, 0]","[0, 0, 0]",1254,0,"[5, 6, 0]","[0, 0, 0]","[5, 2, 1]",,9.880066666666666,"[4, 2, 0]",0,"[1, 0]",0,0,undefined,0,,There is a square.,1,filler,1,True
exh-only,False,Some of the symbols are squares.,True,1 + 2 = ?,0,,4852,,,"[1, 0]","[0, 0, 0]",2567,1,"[5, 3, 7]","[1, 0, 0]","[9, 4, 5]",,9.880066666666666,"[3, 1, 2]",3,"[1, 0]",0,0,undefined,0,,4 + 5 = ?,1,response,1,False
exh-only,False,Some of the symbols are circles.,False,4 + 6 = ?,0,,12670,,,"[0, 1]","[0, 0, 0]",3572,1,"[7, 3, 2]","[5, 0, 0]","[11, 9, 2]",,9.880066666666666,"[10, 4, 6]",3,"[0, 1]",0,1,undefined,1,,9 + 2 = ?,1,filler,1,True
exh-only,False,There are four triangles.,True,0 + 5 = ?,1,,4162,,,"[0, 1]","[3, 0, 0]",911,0,"[9, 0, 1]","[1, 0, 0]","[10, 2, 8]",,9.880066666666666,"[5, 0, 5]",3,"[0, 1]",1,1,undefined,1,,2 + 8 = ?,1,filler,1,False
exh-only,False,Some of the symbols are spades.,True,6 + 3 = ?,0,,7109,,,"[0, 1]","[2, 0, 0]",1550,1,"[3, 1, 6]","[9, 0, 0]","[15, 7, 8]",,9.880066666666666,"[9, 6, 3]",3,"[1, 0]",1,1,undefined,0,,7 + 8 = ?,1,filler,1,False
exh-only,True,There are four ticks.,True,There are only four hearts.,1,,3371,,,"[0, 1]","[0, 0, 0]",1130,0,"[2, 9, 7]","[0, 0, 0]","[6, 9, 5]",,9.880066666666666,"[4, 3, 9]",2,"[1, 0]",1,1,undefined,0,,There are only four stars.,1,response,1,True
exh-only,False,Some of the symbols are triangles.,False,8 + 5 = ?,0,,5938,,,"[0, 1]","[2, 0, 0]",1472,1,"[9, 5, 4]","[9, 0, 0]","[7, 4, 3]",,9.880066666666666,"[13, 8, 5]",3,"[1, 0]",0,1,undefined,0,,4 + 3 = ?,1,filler,1,False
exh-only,True,Some of the symbols are circles.,True,Some of the symbols are clubs.,0,,5007,,,"[1, 0]","[0, 0, 0]",1829,1,"[7, 4, 9]","[0, 0, 0]","[6, 0, 8]",,9.880066666666666,"[1, 0, 3]",1,"[0, 1]",0,0,undefined,1,,Some of the symbols are stars.,1,response,1,True
exh-only,True,There are four spades.,True,There are four ticks.,1,,4726,,,"[0, 1]","[0, 0, 0]",1332,0,"[3, 7, 1]","[0, 0, 0]","[3, 5, 9]",,9.880066666666666,"[2, 5, 7]",0,"[1, 0]",1,1,undefined,0,,There are four spades.,1,filler,1,True
exh-only,True,There are four squares.,True,There are four diamonds.,1,,3448,,,"[0, 1]","[0, 0, 0]",1291,1,"[5, 6, 3]","[0, 0, 0]","[9, 5, 6]",,9.880066666666666,"[0, 6, 4]",1,"[0, 1]",1,1,undefined,1,,There are four triangles.,1,response,1,True
exh-only,True,There is a square.,True,There is a star.,2,,6823,,,"[1, 0]","[0, 0, 0]",2140,1,"[5, 4, 8]","[0, 0, 0]","[5, 0, 6]",,9.880066666666666,"[6, 3, 4]",1,"[0, 1]",0,0,undefined,1,,There is a square.,0,response,1,True
exh-only,True,There is a note.,True,There is only a star.,2,,4894,,,"[1, 0]","[0, 0, 0]",1269,1,"[8, 0, 3]","[0, 0, 0]","[9, 6, 7]",,9.880066666666666,"[6, 0, 7]",2,"[0, 1]",0,0,undefined,1,,There is only a triangle.,0,response,1,True
exh-only,True,There is a circle.,True,There is a square.,2,,4541,,,"[1, 0]","[0, 0, 0]",1260,1,"[7, 4, 5]","[0, 0, 0]","[8, 5, 6]",,9.880066666666666,"[5, 1, 2]",0,"[0, 1]",0,0,undefined,1,,There is a note.,1,filler,1,True
exh-only,True,There is a circle.,True,There is a square.,2,,4635,,,"[1, 0]","[0, 0, 0]",1422,1,"[7, 4, 8]","[0, 0, 0]","[7, 8, 3]",,9.880066666666666,"[5, 9, 7]",0,"[0, 1]",0,0,undefined,1,,There is a circle.,1,filler,1,True
exh-only,True,There are four triangles.,True,There are four notes.,1,,3735,,,"[0, 1]","[0, 0, 0]",1342,1,"[9, 2, 0]","[0, 0, 0]","[1, 3, 0]",,9.880066666666666,"[8, 4, 1]",0,"[0, 1]",1,1,undefined,1,,There are four clubs.,1,response,1,True
exh-only,True,There is a star.,True,There is a tick.,2,,4952,,,"[0, 1]","[0, 0, 0]",1334,0,"[6, 4, 9]","[0, 0, 0]","[5, 6, 2]",,9.880066666666666,"[2, 9, 4]",1,"[1, 0]",1,1,undefined,0,,There is a square.,1,filler,1,True
exh-only,False,There are four squares.,False,4 + 5 = ?,1,,4928,,,"[1, 0]","[5, 0, 0]",1199,0,"[5, 9, 4]","[7, 0, 0]","[12, 3, 9]",,9.880066666666666,"[9, 4, 5]",3,"[1, 0]",1,0,undefined,0,,3 + 9 = ?,1,response,1,True
exh-only,True,There are four squares.,True,There are four triangles.,1,,3482,,,"[1, 0]","[0, 0, 0]",1225,1,"[5, 6, 0]","[0, 0, 0]","[0, 9, 2]",,9.880066666666666,"[9, 6, 0]",1,"[0, 1]",0,0,undefined,1,,There are four diamonds.,1,filler,1,True
exh-only,True,There are four circles.,True,There are only four hearts.,1,,3445,,,"[1, 0]","[0, 0, 0]",1124,0,"[7, 8, 0]","[0, 0, 0]","[5, 1, 7]",,9.880066666666666,"[4, 5, 2]",2,"[1, 0]",0,0,undefined,0,,There are only four squares.,1,response,1,True
exh-only,True,There are four squares.,True,There are four circles.,1,,4086,,,"[0, 1]","[0, 0, 0]",1275,1,"[5, 1, 4]","[0, 0, 0]","[5, 7, 4]",,9.880066666666666,"[7, 5, 1]",0,"[0, 1]",1,1,undefined,1,,There are four squares.,1,filler,1,True
exh-only,True,There are four spades.,True,7 + 7 = ?,1,,5653,,,"[0, 1]","[7, 0, 0]",2569,0,"[3, 7, 2]","[0, 0, 0]","[5, 1, 4]",,9.880066666666666,"[14, 7, 7]",3,"[1, 0]",1,1,undefined,0,,1 + 4 = ?,1,response,1,True
exh-only,True,Some of the symbols are clubs.,True,Some of the symbols are spades.,0,,5187,,,"[1, 0]","[0, 0, 0]",2148,0,"[1, 4, 5]","[0, 0, 0]","[1, 0, 3]",,9.880066666666666,"[3, 5, 1]",1,"[1, 0]",0,0,undefined,0,,Some of the symbols are clubs.,1,response,1,True
exh-only,True,Some of the symbols are notes.,True,Only some of the symbols are stars.,0,,6010,,,"[0, 1]","[0, 0, 0]",1324,0,"[8, 5, 2]","[0, 0, 0]","[5, 7, 9]",,9.880066666666666,"[6, 9, 4]",2,"[1, 0]",1,1,undefined,0,,Only some of the symbols are squares.,1,filler,1,True
exh-only,True,There is a club.,True,There is a star.,2,,4803,,,"[0, 1]","[0, 0, 0]",2338,0,"[1, 9, 6]","[0, 0, 0]","[2, 7, 0]",,9.880066666666666,"[6, 2, 9]",0,"[1, 0]",1,1,undefined,0,,There is a tick.,0,response,1,True
exh-only,True,There are four clubs.,True,There are only four ticks.,1,,5028,,,"[0, 1]","[0, 0, 0]",1245,0,"[1, 3, 0]","[0, 0, 0]","[5, 8, 1]",,9.880066666666666,"[2, 3, 1]",2,"[1, 0]",1,1,undefined,0,,There are only four squares.,1,filler,1,True
exh-only,True,Some of the symbols are circles.,True,Only some of the symbols are notes.,0,,7100,,,"[1, 0]","[0, 0, 0]",2412,0,"[7, 4, 8]","[0, 0, 0]","[5, 8, 1]",,9.880066666666666,"[8, 9, 0]",2,"[1, 0]",0,0,undefined,0,,Only some of the symbols are squares.,1,response,1,True
exh-only,True,There is a square.,True,There is a circle.,2,,3657,,,"[1, 0]","[0, 0, 0]",1318,1,"[5, 8, 6]","[0, 0, 0]","[9, 8, 7]",,9.880066666666666,"[7, 5, 0]",0,"[0, 1]",0,0,undefined,1,,There is a triangle.,1,filler,1,True
exh-only,True,Some of the symbols are squares.,True,Only some of the symbols are clubs.,0,,4489,,,"[0, 1]","[0, 0, 0]",1505,1,"[5, 2, 8]","[0, 0, 0]","[5, 8, 1]",,9.880066666666666,"[1, 7, 9]",2,"[0, 1]",1,1,undefined,1,,Only some of the symbols are squares.,1,filler,1,True
exh-only,True,Some of the symbols are stars.,True,Some of the symbols are triangles.,0,,4825,,,"[0, 1]","[0, 0, 0]",1590,1,"[6, 2, 5]","[0, 0, 0]","[9, 3, 8]",,9.880066666666666,"[9, 5, 4]",1,"[0, 1]",1,1,undefined,1,,Some of the symbols are triangles.,1,filler,1,True
exh-only,False,There are four spades.,True,6 + 8 = ?,1,,4153,,,"[0, 1]","[8, 0, 0]",1311,0,"[3, 6, 8]","[5, 0, 0]","[9, 1, 8]",,9.880066666666666,"[14, 6, 8]",3,"[0, 1]",1,1,undefined,1,,1 + 8 = ?,1,response,1,False
exh-only,True,There is a diamond.,True,There is only a heart.,2,,3612,,,"[1, 0]","[0, 0, 0]",1221,1,"[0, 9, 8]","[0, 0, 0]","[7, 9, 1]",,9.880066666666666,"[4, 6, 2]",2,"[0, 1]",0,0,undefined,1,,There is only a circle.,1,response,1,True
exh-only,True,There is a note.,True,There is a diamond.,2,,5521,,,"[1, 0]","[0, 0, 0]",1168,0,"[8, 1, 7]","[0, 0, 0]","[0, 8, 6]",,9.880066666666666,"[0, 6, 3]",1,"[1, 0]",0,0,undefined,0,,There is a diamond.,1,filler,1,True
exh-only,True,There is a triangle.,True,There is only a note.,2,,6599,,,"[0, 1]","[0, 0, 0]",3805,1,"[9, 1, 7]","[0, 0, 0]","[0, 6, 9]",,9.880066666666666,"[8, 6, 1]",2,"[0, 1]",1,1,undefined,1,,There is only a diamond.,1,filler,1,True
exh-only,True,There are four squares.,True,There are four notes.,1,,4443,,,"[1, 0]","[0, 0, 0]",1812,0,"[5, 8, 2]","[0, 0, 0]","[1, 2, 7]",,9.880066666666666,"[8, 2, 5]",1,"[1, 0]",0,0,undefined,0,,There are four clubs.,1,filler,1,True
exh-only,True,There is a triangle.,True,There is a spade.,2,,13664,,,"[1, 0]","[0, 0, 0]",2163,1,"[9, 2, 8]","[0, 0, 0]","[9, 0, 1]",,9.880066666666666,"[3, 2, 9]",0,"[0, 1]",0,0,undefined,1,,There is a triangle.,0,response,1,True
exh-only,True,Some of the symbols are spades.,True,Some of the symbols are clubs.,0,,5078,,,"[1, 0]","[0, 0, 0]",1481,1,"[3, 9, 5]","[0, 0, 0]","[5, 7, 4]",,9.880066666666666,"[1, 7, 2]",0,"[0, 1]",0,0,undefined,1,,Some of the symbols are squares.,1,filler,1,True
exh-only,False,There are four spades.,True,4 + 2 = ?,1,,3579,,,"[0, 1]","[1, 0, 0]",1359,0,"[3, 8, 5]","[2, 0, 0]","[7, 4, 3]",,9.880066666666666,"[6, 4, 2]",3,"[0, 1]",1,1,undefined,1,,4 + 3 = ?,1,filler,1,False
exh-only,True,There is a heart.,True,There is only a note.,2,,4019,,,"[1, 0]","[0, 0, 0]",2027,1,"[4, 0, 1]","[0, 0, 0]","[9, 6, 8]",,9.880066666666666,"[8, 6, 9]",2,"[0, 1]",0,0,undefined,1,,There is only a triangle.,0,response,1,True
exh-only,True,Some of the symbols are hearts.,True,Some of the symbols are ticks.,0,,8482,,,"[1, 0]","[0, 0, 0]",1228,0,"[4, 1, 3]","[0, 0, 0]","[9, 6, 8]",,9.880066666666666,"[2, 1, 6]",0,"[1, 0]",0,0,undefined,0,,Some of the symbols are triangles.,1,filler,1,True
exh-only,True,There are four triangles.,True,There are four ticks.,1,,2780,,,"[1, 0]","[0, 0, 0]",970,0,"[9, 1, 0]","[0, 0, 0]","[8, 2, 6]",,9.880066666666666,"[2, 6, 0]",1,"[1, 0]",0,0,undefined,0,,There are four notes.,1,filler,1,True
exh-only,True,Some of the symbols are hearts.,True,0 + 1 = ?,0,,10251,,,"[1, 0]","[4, 0, 0]",4520,0,"[4, 2, 8]","[9, 0, 0]","[0, 0, 0]",,9.880066666666666,"[1, 0, 1]",3,"[1, 0]",0,0,undefined,0,,0 + 0 = ?,1,response,1,True
exh-only,True,Some of the symbols are hearts.,True,Only some of the symbols are diamonds.,0,,11636,,,"[1, 0]","[0, 0, 0]",5504,0,"[4, 7, 8]","[0, 0, 0]","[0, 9, 8]",,9.880066666666666,"[0, 4, 9]",2,"[1, 0]",0,0,undefined,0,,Only some of the symbols are diamonds.,1,response,1,True
exh-only,True,Some of the symbols are triangles.,True,9 + 4 = ?,0,,7578,,,"[0, 1]","[3, 0, 0]",3893,0,"[9, 4, 7]","[7, 0, 0]","[15, 6, 9]",,9.880066666666666,"[13, 9, 4]",3,"[1, 0]",1,1,undefined,0,,6 + 9 = ?,1,response,1,True
exh-only,True,There is a spade.,True,4 + 6 = ?,2,,4242,,,"[0, 1]","[8, 0, 0]",1415,0,"[3, 2, 8]","[2, 0, 0]","[7, 1, 6]",,9.880066666666666,"[10, 4, 6]",3,"[1, 0]",1,1,undefined,0,,1 + 6 = ?,1,filler,1,True
exh-only,True,There are four hearts.,True,There are only four ticks.,1,,3600,,,"[0, 1]","[0, 0, 0]",987,0,"[4, 1, 9]","[0, 0, 0]","[0, 9, 7]",,9.880066666666666,"[2, 9, 1]",2,"[1, 0]",1,1,undefined,0,,There are only four diamonds.,1,filler,1,True
exh-only,False,There is a spade.,False,5 + 2 = ?,2,,3441,,,"[1, 0]","[7, 0, 0]",1070,0,"[3, 8, 9]","[4, 0, 0]","[12, 6, 6]",,9.880066666666666,"[7, 5, 2]",3,"[1, 0]",1,0,undefined,0,,6 + 6 = ?,1,filler,1,True
exh-only,True,There are four ticks.,True,There are only four triangles.,1,,3273,,,"[0, 1]","[0, 0, 0]",1487,0,"[2, 3, 4]","[0, 0, 0]","[4, 2, 5]",,9.880066666666666,"[9, 3, 5]",2,"[1, 0]",1,1,undefined,0,,There are only four hearts.,1,response,1,True
exh-only,True,There is a spade.,True,There is only a note.,2,,3685,,,"[0, 1]","[0, 0, 0]",1072,0,"[3, 6, 2]","[0, 0, 0]","[7, 0, 4]",,9.880066666666666,"[8, 2, 5]",2,"[1, 0]",1,1,undefined,0,,There is only a circle.,1,filler,1,True
exh-only,True,Some of the symbols are clubs.,True,Some of the symbols are stars.,0,,5887,,,"[0, 1]","[0, 0, 0]",3249,0,"[1, 3, 4]","[0, 0, 0]","[0, 2, 7]",,9.880066666666666,"[6, 0, 2]",0,"[1, 0]",1,1,undefined,0,,Some of the symbols are diamonds.,1,response,1,True
exh-only,False,There are four stars.,False,3 + 3 = ?,1,,3403,,,"[0, 1]","[10, 0, 0]",997,1,"[6, 3, 2]","[4, 0, 0]","[9, 1, 8]",,9.880066666666666,"[6, 3, 3]",3,"[0, 1]",0,1,undefined,1,,1 + 8 = ?,1,response,1,True
exh-only,False,Some of the symbols are stars.,False,2 + 8 = ?,0,,5410,,,"[1, 0]","[2, 0, 0]",3219,0,"[6, 1, 5]","[8, 0, 0]","[13, 8, 5]",,9.880066666666666,"[10, 2, 8]",3,"[1, 0]",1,0,undefined,0,,8 + 5 = ?,1,filler,1,True
exh-only,True,There are four circles.,True,There are only four squares.,1,,4037,,,"[0, 1]","[0, 0, 0]",1911,0,"[7, 6, 2]","[0, 0, 0]","[1, 7, 0]",,9.880066666666666,"[5, 3, 1]",2,"[1, 0]",1,1,undefined,0,,There are only four clubs.,1,response,1,True
exh-only,True,There is a heart.,True,There is only a diamond.,2,,5014,,,"[1, 0]","[0, 0, 0]",2958,1,"[4, 9, 5]","[0, 0, 0]","[6, 9, 4]",,9.880066666666666,"[0, 8, 3]",2,"[0, 1]",0,0,undefined,1,,There is only a star.,0,response,1,True
exh-only,True,Some of the symbols are circles.,True,Only some of the symbols are notes.,0,,8871,,,"[0, 1]","[0, 0, 0]",1976,0,"[7, 2, 6]","[0, 0, 0]","[6, 1, 9]",,9.880066666666666,"[8, 2, 1]",2,"[1, 0]",1,1,undefined,0,,Only some of the symbols are stars.,1,response,1,True
exh-only,False,There is a heart.,False,5 + 8 = ?,2,,4772,,,"[0, 1]","[3, 0, 0]",2262,1,"[4, 3, 9]","[8, 0, 0]","[5, 0, 5]",,9.880066666666666,"[13, 5, 8]",3,"[1, 0]",0,1,undefined,0,,0 + 5 = ?,0,response,1,False
exh-only,True,There is a spade.,True,There is a triangle.,2,,5343,,,"[0, 1]","[0, 0, 0]",1310,1,"[3, 8, 2]","[0, 0, 0]","[7, 0, 9]",,9.880066666666666,"[9, 0, 2]",1,"[0, 1]",1,1,undefined,1,,There is a circle.,0,response,1,True
exh-only,True,There is a diamond.,True,There is only a note.,2,,4239,,,"[0, 1]","[0, 0, 0]",1830,1,"[0, 5, 6]","[0, 0, 0]","[1, 7, 6]",,9.880066666666666,"[8, 0, 4]",2,"[0, 1]",1,1,undefined,1,,There is only a club.,1,filler,1,True
exh-only,True,There is a tick.,True,There is a square.,2,,4176,,,"[0, 1]","[0, 0, 0]",1182,1,"[2, 6, 9]","[0, 0, 0]","[0, 1, 5]",,9.880066666666666,"[5, 2, 0]",1,"[0, 1]",1,1,undefined,1,,There is a diamond.,0,response,1,True
exh-only,True,Some of the symbols are ticks.,True,Some of the symbols are clubs.,0,,6322,,,"[1, 0]","[0, 0, 0]",2367,0,"[2, 5, 9]","[0, 0, 0]","[0, 1, 7]",,9.880066666666666,"[1, 5, 3]",0,"[1, 0]",0,0,undefined,0,,Some of the symbols are diamonds.,1,filler,1,True
exh-only,True,There are four circles.,True,There are four circles.,1,,3839,,,"[1, 0]","[0, 0, 0]",1660,0,"[7, 4, 0]","[0, 0, 0]","[6, 7, 5]",,9.880066666666666,"[7, 8, 5]",1,"[1, 0]",0,0,undefined,0,,There are four stars.,1,response,1,True
exh-only,True,There are four diamonds.,True,There are four ticks.,1,,4134,,,"[1, 0]","[0, 0, 0]",1511,1,"[0, 3, 8]","[0, 0, 0]","[1, 7, 0]",,9.880066666666666,"[2, 4, 8]",0,"[0, 1]",0,0,undefined,1,,There are four clubs.,1,filler,1,True
exh-only,True,Some of the symbols are hearts.,True,Some of the symbols are hearts.,0,,5182,,,"[1, 0]","[0, 0, 0]",1659,1,"[4, 6, 9]","[0, 0, 0]","[0, 2, 3]",,9.880066666666666,"[4, 7, 8]",1,"[0, 1]",0,0,undefined,1,,Some of the symbols are diamonds.,1,filler,1,True
exh-only,True,Some of the symbols are notes.,True,Some of the symbols are clubs.,0,,4882,,,"[1, 0]","[0, 0, 0]",1862,0,"[8, 7, 3]","[0, 0, 0]","[3, 1, 5]",,9.880066666666666,"[1, 6, 9]",0,"[1, 0]",0,0,undefined,0,,Some of the symbols are spades.,1,response,1,True
exh-only,False,There is a star.,False,5 + 6 = ?,2,,5263,,,"[1, 0]","[1, 0, 0]",2742,0,"[6, 9, 7]","[2, 0, 0]","[10, 7, 3]",,9.880066666666666,"[11, 5, 6]",3,"[0, 1]",1,0,undefined,1,,7 + 3 = ?,0,response,1,False
exh-only,False,There is a diamond.,False,9 + 7 = ?,2,,5487,,,"[1, 0]","[7, 0, 0]",1320,0,"[0, 8, 9]","[0, 0, 0]","[2, 2, 0]",,9.880066666666666,"[16, 9, 7]",3,"[0, 1]",1,0,undefined,1,,2 + 0 = ?,0,response,1,False
exh-only,True,Some of the symbols are diamonds.,True,Some of the symbols are diamonds.,0,,4948,,,"[0, 1]","[0, 0, 0]",1952,1,"[0, 4, 8]","[0, 0, 0]","[5, 9, 6]",,9.880066666666666,"[0, 5, 7]",0,"[0, 1]",1,1,undefined,1,,Some of the symbols are squares.,1,response,1,True
exh-only,False,There are four stars.,False,3 + 8 = ?,1,,5609,,,"[1, 0]","[9, 0, 0]",1097,0,"[6, 3, 4]","[1, 0, 0]","[14, 5, 9]",,9.880066666666666,"[11, 3, 8]",3,"[1, 0]",1,0,undefined,0,,5 + 9 = ?,1,filler,1,True
exh-only,True,There is a diamond.,True,There is a triangle.,2,,4099,,,"[0, 1]","[0, 0, 0]",1331,1,"[0, 8, 9]","[0, 0, 0]","[1, 7, 2]",,9.880066666666666,"[9, 7, 3]",0,"[0, 1]",1,1,undefined,1,,There is a club.,0,response,1,True
exh-only,True,There is a diamond.,True,There is a spade.,2,,4847,,,"[1, 0]","[0, 0, 0]",1472,0,"[0, 3, 4]","[0, 0, 0]","[1, 5, 4]",,9.880066666666666,"[3, 7, 2]",1,"[1, 0]",0,0,undefined,0,,There is a club.,1,filler,1,True
exh-only,True,There is a heart.,True,There is a heart.,2,,5014,,,"[1, 0]","[0, 0, 0]",1977,1,"[4, 6, 0]","[0, 0, 0]","[9, 1, 0]",,9.880066666666666,"[4, 0, 7]",1,"[0, 1]",0,0,undefined,1,,There is a triangle.,1,filler,1,True
exh-only,True,Some of the symbols are spades.,True,Some of the symbols are spades.,0,,5490,,,"[1, 0]","[0, 0, 0]",1932,0,"[3, 7, 5]","[0, 0, 0]","[0, 8, 4]",,9.880066666666666,"[3, 0, 5]",1,"[1, 0]",0,0,undefined,0,,Some of the symbols are diamonds.,1,response,1,True
,,,,,,"[0, 'Sarah']",,1,Sarah,,,,,,,,,12.465833333333334,,,,,,undefined,,bot_check,,,,2,
exh-only,True,There are four triangles.,True,There are four ticks.,1,,11336,,,"[0, 1]","[0, 0, 0]",2096,1,"[9, 3, 5]","[0, 0, 0]","[4, 9, 5]",,12.465833333333334,"[2, 8, 6]",0,"[0, 1]",1,1,undefined,1,,There are four hearts.,1,filler,2,True
exh-only,True,There are four hearts.,True,There are only four diamonds.,1,,7294,,,"[1, 0]","[0, 0, 0]",3135,0,"[4, 6, 9]","[0, 0, 0]","[2, 1, 5]",,12.465833333333334,"[0, 6, 4]",2,"[1, 0]",0,0,undefined,0,,There are only four ticks.,0,response,2,True
exh-only,True,There are four clubs.,True,There are four ticks.,1,,6947,,,"[1, 0]","[0, 0, 0]",2925,1,"[1, 5, 0]","[0, 0, 0]","[9, 0, 3]",,12.465833333333334,"[2, 1, 4]",0,"[0, 1]",0,0,undefined,1,,There are four triangles.,1,filler,2,True
exh-only,True,There are four spades.,True,There are four clubs.,1,,5736,,,"[0, 1]","[0, 0, 0]",2064,1,"[3, 8, 4]","[0, 0, 0]","[7, 9, 1]",,12.465833333333334,"[1, 9, 2]",0,"[0, 1]",1,1,undefined,1,,There are four circles.,1,filler,2,True
exh-only,True,There is a triangle.,True,There is only a heart.,2,,6348,,,"[1, 0]","[0, 0, 0]",2354,1,"[9, 1, 4]","[0, 0, 0]","[5, 0, 8]",,12.465833333333334,"[4, 9, 0]",2,"[0, 1]",0,0,undefined,1,,There is only a square.,0,response,2,True
exh-only,True,Some of the symbols are stars.,True,Some of the symbols are squares.,0,,8167,,,"[0, 1]","[0, 0, 0]",1798,1,"[6, 9, 3]","[0, 0, 0]","[8, 2, 3]",,12.465833333333334,"[5, 0, 6]",1,"[0, 1]",1,1,undefined,1,,Some of the symbols are notes.,1,filler,2,True
exh-only,True,There are four circles.,True,There are only four notes.,1,,4690,,,"[0, 1]","[0, 0, 0]",1778,1,"[7, 8, 1]","[0, 0, 0]","[4, 5, 8]",,12.465833333333334,"[8, 5, 2]",2,"[0, 1]",1,1,undefined,1,,There are only four hearts.,0,response,2,True
exh-only,True,There is a star.,True,There is only a triangle.,2,,7591,,,"[0, 1]","[0, 0, 0]",1597,1,"[6, 0, 1]","[0, 0, 0]","[7, 2, 3]",,12.465833333333334,"[9, 0, 4]",2,"[0, 1]",1,1,undefined,1,,There is only a circle.,0,response,2,True
exh-only,True,Some of the symbols are hearts.,True,Some of the symbols are clubs.,0,,12139,,,"[0, 1]","[0, 0, 0]",3042,0,"[4, 6, 9]","[0, 0, 0]","[4, 5, 1]",,12.465833333333334,"[1, 3, 6]",1,"[1, 0]",1,1,undefined,0,,Some of the symbols are hearts.,1,filler,2,True
exh-only,False,There is a club.,False,There is a triangle.,2,,9166,,,"[0, 1]","[0, 0, 0]",2501,1,"[1, 9, 6]","[0, 0, 0]","[5, 6, 7]",,12.465833333333334,"[9, 4, 0]",1,"[1, 0]",0,1,undefined,0,,There is a square.,0,response,2,False
exh-only,True,There is a club.,True,2 + 7 = ?,2,,7917,,,"[1, 0]","[4, 0, 0]",2222,1,"[1, 6, 8]","[6, 0, 0]","[15, 8, 7]",,12.465833333333334,"[9, 2, 7]",3,"[0, 1]",0,0,undefined,1,,8 + 7 = ?,0,response,2,True
exh-only,True,There are four ticks.,True,9 + 8 = ?,1,,7207,,,"[0, 1]","[3, 0, 0]",2258,0,"[2, 9, 1]","[2, 0, 0]","[5, 4, 1]",,12.465833333333334,"[17, 9, 8]",3,"[1, 0]",1,1,undefined,0,,4 + 1 = ?,1,filler,2,True
exh-only,True,There are four spades.,True,There are four circles.,1,,12331,,,"[0, 1]","[0, 0, 0]",3099,0,"[3, 0, 2]","[0, 0, 0]","[2, 6, 0]",,12.465833333333334,"[7, 2, 3]",1,"[1, 0]",1,1,undefined,0,,There are four ticks.,1,filler,2,True
exh-only,True,There is a diamond.,True,There is only a diamond.,2,,5373,,,"[0, 1]","[0, 0, 0]",1807,0,"[0, 3, 7]","[0, 0, 0]","[2, 0, 8]",,12.465833333333334,"[0, 5, 2]",2,"[1, 0]",1,1,undefined,0,,There is only a tick.,1,filler,2,True
exh-only,True,Some of the symbols are squares.,True,Some of the symbols are clubs.,0,,6923,,,"[1, 0]","[0, 0, 0]",2109,0,"[5, 3, 0]","[0, 0, 0]","[6, 7, 1]",,12.465833333333334,"[1, 5, 2]",1,"[1, 0]",0,0,undefined,0,,Some of the symbols are stars.,1,filler,2,True
exh-only,False,There is a tick.,False,0 + 6 = ?,2,,5668,,,"[0, 1]","[4, 0, 0]",1863,1,"[2, 8, 0]","[4, 0, 0]","[1, 0, 1]",,12.465833333333334,"[6, 0, 6]",3,"[0, 1]",0,1,undefined,1,,0 + 1 = ?,0,response,2,True
exh-only,False,Some of the symbols are clubs.,True,8 + 0 = ?,0,,5953,,,"[1, 0]","[5, 0, 0]",2575,1,"[1, 3, 7]","[1, 0, 0]","[13, 9, 4]",,12.465833333333334,"[8, 8, 0]",3,"[1, 0]",0,0,undefined,0,,9 + 4 = ?,1,response,2,False
exh-only,False,Some of the symbols are hearts.,False,6 + 6 = ?,0,,6211,,,"[1, 0]","[4, 0, 0]",2584,0,"[4, 2, 7]","[5, 0, 0]","[3, 0, 3]",,12.465833333333334,"[12, 6, 6]",3,"[1, 0]",1,0,undefined,0,,0 + 3 = ?,1,filler,2,True
exh-only,False,There is a note.,False,5 + 6 = ?,2,,4788,,,"[0, 1]","[3, 0, 0]",1897,1,"[8, 6, 0]","[2, 0, 0]","[14, 5, 9]",,12.465833333333334,"[11, 5, 6]",3,"[0, 1]",0,1,undefined,1,,5 + 9 = ?,0,response,2,True
exh-only,True,Some of the symbols are diamonds.,True,Some of the symbols are hearts.,0,,5813,,,"[1, 0]","[0, 0, 0]",2249,0,"[0, 6, 9]","[0, 0, 0]","[0, 2, 4]",,12.465833333333334,"[4, 7, 0]",1,"[1, 0]",0,0,undefined,0,,Some of the symbols are diamonds.,1,response,2,True
exh-only,True,There are four triangles.,True,There are four squares.,1,,5770,,,"[0, 1]","[0, 0, 0]",1331,1,"[9, 8, 1]","[0, 0, 0]","[1, 8, 6]",,12.465833333333334,"[5, 4, 2]",0,"[0, 1]",1,1,undefined,1,,There are four clubs.,1,filler,2,True
exh-only,True,There is a star.,True,There is a circle.,2,,9892,,,"[1, 0]","[0, 0, 0]",2016,0,"[6, 1, 9]","[0, 0, 0]","[1, 6, 0]",,12.465833333333334,"[7, 5, 3]",0,"[1, 0]",0,0,undefined,0,,There is a club.,1,filler,2,True
exh-only,True,There are four spades.,True,There are four ticks.,1,,4371,,,"[0, 1]","[0, 0, 0]",1370,0,"[3, 4, 8]","[0, 0, 0]","[2, 7, 1]",,12.465833333333334,"[2, 3, 8]",0,"[1, 0]",1,1,undefined,0,,There are four ticks.,0,response,2,True
exh-only,False,There is a triangle.,False,There is a circle.,2,,15702,,,"[0, 1]","[0, 0, 0]",8171,0,"[9, 6, 1]","[0, 0, 0]","[5, 6, 4]",,12.465833333333334,"[7, 3, 2]",1,"[0, 1]",0,1,undefined,1,,There is a square.,0,response,2,False
exh-only,True,There is a club.,True,There is only a note.,2,,8120,,,"[0, 1]","[0, 0, 0]",4222,0,"[1, 2, 3]","[0, 0, 0]","[3, 0, 7]",,12.465833333333334,"[8, 7, 2]",2,"[1, 0]",1,1,undefined,0,,There is only a spade.,0,filler,2,True
exh-only,True,There is a circle.,True,There is only a heart.,2,,9937,,,"[0, 1]","[0, 0, 0]",2591,0,"[7, 6, 9]","[0, 0, 0]","[7, 8, 4]",,12.465833333333334,"[4, 7, 2]",2,"[1, 0]",1,1,undefined,0,,There is only a circle.,0,response,2,True
exh-only,True,Some of the symbols are diamonds.,True,Only some of the symbols are ticks.,0,,7750,,,"[0, 1]","[0, 0, 0]",1971,0,"[0, 2, 8]","[0, 0, 0]","[6, 7, 9]",,12.465833333333334,"[2, 9, 4]",2,"[1, 0]",1,1,undefined,0,,Only some of the symbols are stars.,1,filler,2,True
exh-only,False,There is a square.,False,There is a spade.,2,,7335,,,"[1, 0]","[0, 0, 0]",1390,1,"[5, 0, 7]","[0, 0, 0]","[6, 2, 4]",,12.465833333333334,"[3, 9, 5]",1,"[1, 0]",1,0,undefined,0,,There is a star.,1,filler,2,False
exh-only,True,There are four squares.,True,There are only four triangles.,1,,4515,,,"[0, 1]","[0, 0, 0]",1830,1,"[5, 3, 1]","[0, 0, 0]","[6, 0, 5]",,12.465833333333334,"[9, 6, 7]",2,"[0, 1]",1,1,undefined,1,,There are only four stars.,1,filler,2,True
exh-only,True,Some of the symbols are hearts.,True,Only some of the symbols are spades.,0,,6777,,,"[1, 0]","[0, 0, 0]",1425,1,"[4, 5, 2]","[0, 0, 0]","[8, 5, 3]",,12.465833333333334,"[3, 4, 2]",2,"[0, 1]",0,0,undefined,1,,Only some of the symbols are notes.,1,filler,2,True
exh-only,True,Some of the symbols are diamonds.,True,Only some of the symbols are squares.,0,,5839,,,"[1, 0]","[0, 0, 0]",1596,1,"[0, 4, 5]","[0, 0, 0]","[4, 5, 0]",,12.465833333333334,"[5, 7, 1]",2,"[0, 1]",0,0,undefined,1,,Only some of the symbols are hearts.,1,filler,2,True
exh-only,True,There is a note.,True,There is a diamond.,2,,5003,,,"[0, 1]","[0, 0, 0]",1868,1,"[8, 4, 0]","[0, 0, 0]","[2, 3, 8]",,12.465833333333334,"[0, 8, 6]",0,"[0, 1]",1,1,undefined,1,,There is a tick.,0,response,2,True
exh-only,True,There are four triangles.,True,There are only four ticks.,1,,5965,,,"[0, 1]","[0, 0, 0]",2764,1,"[9, 8, 0]","[0, 0, 0]","[0, 4, 9]",,12.465833333333334,"[2, 9, 1]",2,"[0, 1]",1,1,undefined,1,,There are only four diamonds.,1,filler,2,True
exh-only,False,There are four triangles.,True,There are four spades.,1,,8266,,,"[0, 1]","[0, 0, 0]",2904,1,"[9, 5, 3]","[0, 0, 0]","[0, 1, 5]",,12.465833333333334,"[3, 1, 2]",1,"[1, 0]",1,1,undefined,0,,There are four diamonds.,1,filler,2,False
exh-only,True,Some of the symbols are hearts.,True,Some of the symbols are triangles.,0,,7149,,,"[1, 0]","[0, 0, 0]",1153,1,"[4, 2, 8]","[0, 0, 0]","[9, 5, 2]",,12.465833333333334,"[9, 4, 2]",1,"[0, 1]",0,0,undefined,1,,Some of the symbols are triangles.,1,filler,2,True
exh-only,True,There are four stars.,True,There are four spades.,1,,4775,,,"[1, 0]","[0, 0, 0]",1454,1,"[6, 0, 9]","[0, 0, 0]","[0, 5, 6]",,12.465833333333334,"[3, 6, 4]",1,"[0, 1]",0,0,undefined,1,,There are four diamonds.,1,filler,2,True
exh-only,True,Some of the symbols are spades.,True,Only some of the symbols are notes.,0,,6770,,,"[1, 0]","[0, 0, 0]",3359,1,"[3, 2, 4]","[0, 0, 0]","[1, 9, 5]",,12.465833333333334,"[8, 1, 6]",2,"[0, 1]",0,0,undefined,1,,Only some of the symbols are clubs.,1,response,2,True
exh-only,False,There is a heart.,False,There is a heart.,2,,10770,,,"[0, 1]","[0, 0, 0]",4781,1,"[4, 5, 0]","[0, 0, 0]","[3, 7, 1]",,12.465833333333334,"[4, 8, 6]",1,"[1, 0]",0,1,undefined,0,,There is a spade.,0,response,2,False
exh-only,True,There are four diamonds.,True,0 + 7 = ?,1,,4304,,,"[1, 0]","[5, 0, 0]",1352,1,"[0, 8, 7]","[4, 0, 0]","[1, 0, 1]",,12.465833333333334,"[7, 0, 7]",3,"[0, 1]",0,0,undefined,1,,0 + 1 = ?,1,filler,2,True
exh-only,True,There is a spade.,True,There is a club.,2,,5271,,,"[0, 1]","[0, 0, 0]",1960,0,"[3, 4, 5]","[0, 0, 0]","[1, 5, 4]",,12.465833333333334,"[1, 4, 9]",0,"[1, 0]",1,1,undefined,0,,There is a club.,0,response,2,True
exh-only,False,There is a club.,False,1 + 2 = ?,2,,9315,,,"[0, 1]","[5, 0, 0]",2094,1,"[1, 5, 9]","[8, 0, 0]","[9, 2, 7]",,12.465833333333334,"[3, 1, 2]",3,"[1, 0]",0,1,undefined,0,,2 + 7 = ?,1,filler,2,False
exh-only,True,There are four hearts.,True,There are four stars.,1,,9651,,,"[1, 0]","[0, 0, 0]",6274,1,"[4, 8, 7]","[0, 0, 0]","[5, 4, 1]",,12.465833333333334,"[6, 1, 0]",0,"[0, 1]",0,0,undefined,1,,There are four squares.,0,response,2,True
exh-only,True,There are four notes.,True,There are four diamonds.,1,,6182,,,"[0, 1]","[0, 0, 0]",2856,0,"[8, 0, 2]","[0, 0, 0]","[7, 3, 8]",,12.465833333333334,"[0, 7, 2]",0,"[1, 0]",1,1,undefined,0,,There are four circles.,0,response,2,True
exh-only,False,There is a diamond.,False,There is a spade.,2,,10479,,,"[1, 0]","[0, 0, 0]",4686,1,"[0, 9, 5]","[0, 0, 0]","[3, 2, 0]",,12.465833333333334,"[3, 7, 4]",1,"[1, 0]",1,0,undefined,0,,There is a spade.,1,filler,2,False
exh-only,True,There is a triangle.,True,There is only a tick.,2,,5573,,,"[1, 0]","[0, 0, 0]",2091,0,"[9, 3, 2]","[0, 0, 0]","[4, 6, 5]",,12.465833333333334,"[2, 7, 4]",2,"[1, 0]",0,0,undefined,0,,There is only a heart.,0,response,2,True
exh-only,True,Some of the symbols are stars.,True,Only some of the symbols are ticks.,0,,7044,,,"[1, 0]","[0, 0, 0]",2463,1,"[6, 2, 4]","[0, 0, 0]","[8, 6, 3]",,12.465833333333334,"[2, 1, 5]",2,"[0, 1]",0,0,undefined,1,,Only some of the symbols are notes.,1,response,2,True
exh-only,True,Some of the symbols are diamonds.,True,Some of the symbols are notes.,0,,9795,,,"[1, 0]","[0, 0, 0]",2669,0,"[0, 3, 6]","[0, 0, 0]","[0, 2, 9]",,12.465833333333334,"[8, 2, 7]",0,"[1, 0]",0,0,undefined,0,,Some of the symbols are diamonds.,1,filler,2,True
exh-only,True,There are four circles.,True,6 + 0 = ?,1,,6308,,,"[1, 0]","[4, 0, 0]",3940,1,"[7, 6, 0]","[2, 0, 0]","[7, 0, 7]",,12.465833333333334,"[6, 6, 0]",3,"[0, 1]",0,0,undefined,1,,0 + 7 = ?,0,response,2,True
exh-only,True,Some of the symbols are triangles.,True,Some of the symbols are triangles.,0,,9197,,,"[0, 1]","[0, 0, 0]",1664,0,"[9, 1, 3]","[0, 0, 0]","[5, 7, 1]",,12.465833333333334,"[9, 2, 3]",0,"[1, 0]",1,1,undefined,0,,Some of the symbols are squares.,1,filler,2,True
exh-only,True,There is a heart.,True,There is a square.,2,,4072,,,"[1, 0]","[0, 0, 0]",1381,1,"[4, 8, 0]","[0, 0, 0]","[2, 9, 1]",,12.465833333333334,"[5, 3, 7]",0,"[0, 1]",0,0,undefined,1,,There is a tick.,1,filler,2,True
exh-only,True,There is a note.,True,There is a triangle.,2,,11542,,,"[1, 0]","[0, 0, 0]",5142,1,"[8, 5, 3]","[0, 0, 0]","[2, 5, 3]",,12.465833333333334,"[9, 1, 6]",0,"[0, 1]",0,0,undefined,1,,There is a tick.,0,response,2,True
exh-only,True,There are four notes.,True,There are four squares.,1,,6209,,,"[1, 0]","[0, 0, 0]",2028,0,"[8, 3, 2]","[0, 0, 0]","[6, 2, 9]",,12.465833333333334,"[5, 4, 2]",1,"[1, 0]",0,0,undefined,0,,There are four stars.,0,response,2,True
exh-only,False,Some of the symbols are diamonds.,True,5 + 1 = ?,0,,5484,,,"[1, 0]","[2, 0, 0]",2177,1,"[0, 5, 4]","[5, 0, 0]","[5, 0, 5]",,12.465833333333334,"[6, 5, 1]",3,"[1, 0]",0,0,undefined,0,,0 + 5 = ?,1,filler,2,False
exh-only,True,Some of the symbols are notes.,True,Only some of the symbols are ticks.,0,,5970,,,"[1, 0]","[0, 0, 0]",2481,0,"[8, 5, 2]","[0, 0, 0]","[3, 0, 4]",,12.465833333333334,"[2, 4, 3]",2,"[1, 0]",0,0,undefined,0,,Only some of the symbols are spades.,0,response,2,True
exh-only,False,There is a spade.,True,0 + 8 = ?,2,,5073,,,"[0, 1]","[7, 0, 0]",1497,0,"[3, 6, 5]","[9, 0, 0]","[10, 7, 3]",,12.465833333333334,"[8, 0, 8]",3,"[0, 1]",1,1,undefined,1,,7 + 3 = ?,1,filler,2,False
exh-only,True,There are four triangles.,True,There are four notes.,1,,6168,,,"[0, 1]","[0, 0, 0]",1399,1,"[9, 3, 1]","[0, 0, 0]","[6, 1, 3]",,12.465833333333334,"[8, 0, 1]",1,"[0, 1]",1,1,undefined,1,,There are four stars.,0,response,2,True
exh-only,True,There are four stars.,True,There are four spades.,1,,5925,,,"[0, 1]","[0, 0, 0]",1779,1,"[6, 0, 2]","[0, 0, 0]","[1, 0, 6]",,12.465833333333334,"[3, 6, 0]",1,"[0, 1]",1,1,undefined,1,,There are four clubs.,0,response,2,True
exh-only,True,There are four ticks.,True,There are only four triangles.,1,,6790,,,"[1, 0]","[0, 0, 0]",1968,0,"[2, 8, 6]","[0, 0, 0]","[0, 5, 7]",,12.465833333333334,"[9, 7, 8]",2,"[1, 0]",0,0,undefined,0,,There are only four diamonds.,1,filler,2,True
exh-only,True,There is a club.,True,There is a heart.,2,,6580,,,"[0, 1]","[0, 0, 0]",1244,0,"[1, 8, 3]","[0, 0, 0]","[4, 6, 3]",,12.465833333333334,"[4, 8, 5]",1,"[1, 0]",1,1,undefined,0,,There is a heart.,0,filler,2,True
exh-only,True,There are four hearts.,True,There are only four diamonds.,1,,4788,,,"[0, 1]","[0, 0, 0]",2091,0,"[4, 8, 0]","[0, 0, 0]","[3, 7, 0]",,12.465833333333334,"[0, 3, 9]",2,"[1, 0]",1,1,undefined,0,,There are only four spades.,0,response,2,True
exh-only,False,Some of the symbols are triangles.,False,7 + 4 = ?,0,,8271,,,"[0, 1]","[8, 0, 0]",4648,1,"[9, 2, 1]","[3, 0, 0]","[9, 4, 5]",,12.465833333333334,"[11, 7, 4]",3,"[0, 1]",0,1,undefined,1,,4 + 5 = ?,1,response,2,True
exh-only,True,There are four notes.,True,9 + 1 = ?,1,,6416,,,"[0, 1]","[6, 0, 0]",1741,0,"[8, 0, 3]","[2, 0, 0]","[12, 5, 7]",,12.465833333333334,"[10, 9, 1]",3,"[1, 0]",1,1,undefined,0,,5 + 7 = ?,0,response,2,True
exh-only,False,Some of the symbols are stars.,False,4 + 6 = ?,0,,5006,,,"[0, 1]","[7, 0, 0]",1480,1,"[6, 9, 0]","[0, 0, 0]","[9, 7, 2]",,12.465833333333334,"[10, 4, 6]",3,"[1, 0]",0,1,undefined,0,,7 + 2 = ?,0,response,2,False
exh-only,True,Some of the symbols are stars.,True,Some of the symbols are spades.,0,,6902,,,"[0, 1]","[0, 0, 0]",1577,1,"[6, 1, 5]","[0, 0, 0]","[7, 8, 5]",,12.465833333333334,"[3, 2, 1]",0,"[0, 1]",1,1,undefined,1,,Some of the symbols are circles.,0,response,2,True
exh-only,True,Some of the symbols are diamonds.,True,Some of the symbols are hearts.,0,,6252,,,"[1, 0]","[0, 0, 0]",2823,1,"[0, 7, 3]","[0, 0, 0]","[3, 8, 2]",,12.465833333333334,"[4, 6, 2]",0,"[0, 1]",0,0,undefined,1,,Some of the symbols are spades.,0,response,2,True
exh-only,True,Some of the symbols are squares.,True,Some of the symbols are clubs.,0,,4712,,,"[1, 0]","[0, 0, 0]",1375,1,"[5, 6, 9]","[0, 0, 0]","[9, 1, 3]",,12.465833333333334,"[1, 2, 7]",0,"[0, 1]",0,0,undefined,1,,Some of the symbols are triangles.,0,response,2,True
exh-only,False,There are four circles.,True,5 + 8 = ?,1,,4365,,,"[1, 0]","[5, 0, 0]",1577,1,"[7, 6, 5]","[3, 0, 0]","[0, 0, 0]",,12.465833333333334,"[13, 5, 8]",3,"[1, 0]",0,0,undefined,0,,0 + 0 = ?,0,response,2,False
exh-only,True,Some of the symbols are stars.,True,Some of the symbols are circles.,0,,4966,,,"[0, 1]","[0, 0, 0]",1664,1,"[6, 8, 7]","[0, 0, 0]","[2, 3, 8]",,12.465833333333334,"[7, 0, 9]",0,"[0, 1]",1,1,undefined,1,,Some of the symbols are ticks.,1,filler,2,True
exh-only,True,There is a club.,True,There is a club.,2,,4372,,,"[1, 0]","[0, 0, 0]",1409,0,"[1, 5, 6]","[0, 0, 0]","[2, 1, 3]",,12.465833333333334,"[1, 0, 4]",1,"[1, 0]",0,0,undefined,0,,There is a tick.,0,response,2,True
exh-only,False,There is a club.,False,5 + 3 = ?,2,,4914,,,"[0, 1]","[0, 0, 0]",1612,1,"[1, 6, 8]","[1, 0, 0]","[8, 1, 7]",,12.465833333333334,"[8, 5, 3]",3,"[1, 0]",0,1,undefined,0,,1 + 7 = ?,0,response,2,False
exh-only,True,There are four hearts.,True,There are only four diamonds.,1,,5986,,,"[1, 0]","[0, 0, 0]",1615,0,"[4, 3, 1]","[0, 0, 0]","[9, 1, 2]",,12.465833333333334,"[0, 2, 8]",2,"[1, 0]",0,0,undefined,0,,There are only four triangles.,0,response,2,True
exh-only,True,Some of the symbols are ticks.,True,Only some of the symbols are hearts.,0,,6950,,,"[1, 0]","[0, 0, 0]",1355,0,"[2, 5, 1]","[0, 0, 0]","[1, 9, 6]",,12.465833333333334,"[4, 2, 8]",2,"[1, 0]",0,0,undefined,0,,Only some of the symbols are clubs.,0,response,2,True
exh-only,False,There is a triangle.,False,2 + 7 = ?,2,,4679,,,"[1, 0]","[3, 0, 0]",1949,0,"[9, 4, 2]","[6, 0, 0]","[14, 7, 7]",,12.465833333333334,"[9, 2, 7]",3,"[0, 1]",1,0,undefined,1,,7 + 7 = ?,1,filler,2,False
exh-only,False,There is a note.,True,There is a club.,2,,34761,,,"[0, 1]","[0, 0, 0]",9121,1,"[8, 7, 2]","[0, 0, 0]","[0, 3, 5]",,12.465833333333334,"[1, 7, 0]",0,"[1, 0]",1,1,undefined,0,,There is a diamond.,0,filler,2,False
exh-only,True,There are four ticks.,True,There are four ticks.,1,,4604,,,"[0, 1]","[0, 0, 0]",984,0,"[2, 8, 5]","[0, 0, 0]","[4, 9, 0]",,12.465833333333334,"[2, 3, 4]",0,"[1, 0]",1,1,undefined,0,,There are four hearts.,0,response,2,True
exh-only,True,Some of the symbols are circles.,True,Some of the symbols are stars.,0,,6669,,,"[1, 0]","[0, 0, 0]",1951,0,"[7, 1, 3]","[0, 0, 0]","[7, 6, 1]",,12.465833333333334,"[6, 7, 2]",1,"[1, 0]",0,0,undefined,0,,Some of the symbols are circles.,0,response,2,True
exh-only,True,Some of the symbols are notes.,True,Some of the symbols are diamonds.,0,,5742,,,"[1, 0]","[0, 0, 0]",1688,1,"[8, 0, 5]","[0, 0, 0]","[6, 9, 1]",,12.465833333333334,"[0, 5, 2]",1,"[0, 1]",0,0,undefined,1,,Some of the symbols are stars.,0,response,2,True
exh-only,True,There is a club.,True,There is a square.,2,,8382,,,"[0, 1]","[0, 0, 0]",5498,1,"[1, 3, 0]","[0, 0, 0]","[1, 0, 5]",,12.465833333333334,"[5, 1, 9]",1,"[0, 1]",1,1,undefined,1,,There is a club.,1,filler,2,True
exh-only,True,There is a diamond.,True,There is a circle.,2,,4278,,,"[0, 1]","[0, 0, 0]",1317,1,"[0, 2, 9]","[0, 0, 0]","[6, 9, 2]",,12.465833333333334,"[7, 6, 1]",0,"[0, 1]",1,1,undefined,1,,There is a star.,0,response,2,True
exh-only,True,There are four triangles.,True,There are four spades.,1,,6914,,,"[0, 1]","[0, 0, 0]",1181,0,"[9, 7, 3]","[0, 0, 0]","[4, 2, 5]",,12.465833333333334,"[3, 7, 2]",1,"[1, 0]",1,1,undefined,0,,There are four hearts.,0,response,2,True
exh-only,False,There is a club.,False,8 + 6 = ?,2,,4390,,,"[1, 0]","[4, 0, 0]",1480,0,"[1, 7, 4]","[2, 0, 0]","[7, 6, 1]",,12.465833333333334,"[14, 8, 6]",3,"[1, 0]",1,0,undefined,0,,6 + 1 = ?,1,filler,2,True
exh-only,False,Some of the symbols are circles.,False,9 + 7 = ?,0,,5964,,,"[1, 0]","[0, 0, 0]",2632,0,"[7, 3, 2]","[6, 0, 0]","[11, 2, 9]",,12.465833333333334,"[16, 9, 7]",3,"[1, 0]",1,0,undefined,0,,2 + 9 = ?,1,filler,2,True
exh-only,True,Some of the symbols are hearts.,True,Only some of the symbols are stars.,0,,6698,,,"[0, 1]","[0, 0, 0]",2176,1,"[4, 5, 0]","[0, 0, 0]","[4, 7, 9]",,12.465833333333334,"[6, 2, 0]",2,"[0, 1]",1,1,undefined,1,,Only some of the symbols are hearts.,1,filler,2,True
exh-only,False,Some of the symbols are diamonds.,False,0 + 2 = ?,0,,4969,,,"[1, 0]","[0, 0, 0]",1920,0,"[0, 7, 8]","[6, 0, 0]","[14, 6, 8]",,12.465833333333334,"[2, 0, 2]",3,"[0, 1]",1,0,undefined,1,,6 + 8 = ?,0,response,2,False
exh-only,True,Some of the symbols are triangles.,True,Some of the symbols are squares.,0,,12624,,,"[1, 0]","[0, 0, 0]",1916,0,"[9, 7, 0]","[0, 0, 0]","[3, 1, 9]",,12.465833333333334,"[5, 6, 2]",0,"[1, 0]",0,0,undefined,0,,Some of the symbols are spades.,1,filler,2,True
exh-only,True,There are four stars.,True,There are four circles.,1,,5418,,,"[1, 0]","[0, 0, 0]",1212,1,"[6, 7, 4]","[0, 0, 0]","[0, 5, 1]",,12.465833333333334,"[7, 9, 3]",1,"[0, 1]",0,0,undefined,1,,There are four diamonds.,0,filler,2,True
exh-only,True,There are four spades.,True,1 + 9 = ?,1,,6900,,,"[1, 0]","[3, 0, 0]",4520,1,"[3, 0, 7]","[4, 0, 0]","[8, 4, 4]",,12.465833333333334,"[10, 1, 9]",3,"[0, 1]",0,0,undefined,1,,4 + 4 = ?,1,filler,2,True
exh-only,False,Some of the symbols are squares.,True,6 + 1 = ?,0,,9542,,,"[1, 0]","[7, 0, 0]",2186,1,"[5, 7, 8]","[8, 0, 0]","[9, 1, 8]",,12.465833333333334,"[7, 6, 1]",3,"[1, 0]",0,0,undefined,0,,1 + 8 = ?,1,filler,2,False
exh-only,True,There is a diamond.,True,There is only a star.,2,,4805,,,"[1, 0]","[0, 0, 0]",1360,1,"[0, 2, 8]","[0, 0, 0]","[7, 2, 6]",,12.465833333333334,"[6, 4, 0]",2,"[0, 1]",0,0,undefined,1,,There is only a circle.,1,filler,2,True
exh-only,False,There are four stars.,False,6 + 4 = ?,1,,4283,,,"[0, 1]","[6, 0, 0]",1797,1,"[6, 4, 8]","[6, 0, 0]","[8, 3, 5]",,12.465833333333334,"[10, 6, 4]",3,"[0, 1]",0,1,undefined,1,,3 + 5 = ?,0,response,2,True
exh-only,False,There are four triangles.,False,9 + 4 = ?,1,,4995,,,"[0, 1]","[5, 0, 0]",1379,1,"[9, 3, 0]","[4, 0, 0]","[10, 3, 7]",,12.465833333333334,"[13, 9, 4]",3,"[0, 1]",0,1,undefined,1,,3 + 7 = ?,1,filler,2,True
exh-only,True,Some of the symbols are circles.,True,Some of the symbols are ticks.,0,,4381,,,"[1, 0]","[0, 0, 0]",1244,0,"[7, 2, 6]","[0, 0, 0]","[6, 1, 3]",,12.465833333333334,"[2, 6, 1]",0,"[1, 0]",0,0,undefined,0,,Some of the symbols are stars.,0,response,2,True
exh-only,True,There is a note.,True,There is a note.,2,,3913,,,"[1, 0]","[0, 0, 0]",1540,1,"[8, 7, 4]","[0, 0, 0]","[2, 6, 0]",,12.465833333333334,"[8, 3, 1]",0,"[0, 1]",0,0,undefined,1,,There is a tick.,1,filler,2,True
exh-only,True,There is a triangle.,True,There is only a triangle.,2,,4580,,,"[0, 1]","[0, 0, 0]",1831,0,"[9, 6, 0]","[0, 0, 0]","[4, 9, 6]",,12.465833333333334,"[9, 6, 7]",2,"[1, 0]",1,1,undefined,0,,There is only a heart.,0,filler,2,True
exh-only,True,Some of the symbols are squares.,True,Some of the symbols are squares.,0,,4835,,,"[1, 0]","[0, 0, 0]",1896,1,"[5, 6, 9]","[0, 0, 0]","[6, 5, 4]",,12.465833333333334,"[5, 1, 8]",1,"[0, 1]",0,0,undefined,1,,Some of the symbols are stars.,0,response,2,True
exh-only,True,There are four diamonds.,True,There are only four stars.,1,,5014,,,"[0, 1]","[0, 0, 0]",1911,1,"[0, 1, 5]","[0, 0, 0]","[9, 3, 5]",,12.465833333333334,"[6, 7, 2]",2,"[0, 1]",1,1,undefined,1,,There are only four triangles.,1,filler,2,True
,,,,,,"[0, 'sarah']",,1,Sarah,,,,,,,,,15.73195,,,,,,undefined,,bot_check,,,,3,
exh-only,False,There are four triangles.,False,4 + 4 = ?,1,,17554,,,"[0, 1]","[2, 0, 0]",9152,1,"[9, 1, 2]","[6, 0, 0]","[11, 9, 2]",,15.73195,"[8, 4, 4]",3,"[0, 1]",0,1,undefined,1,,9 + 2 = ?,1,filler,3,True
exh-only,True,There is a circle.,True,There is a star.,2,,7039,,,"[1, 0]","[0, 0, 0]",2391,1,"[7, 8, 4]","[0, 0, 0]","[4, 2, 8]",,15.73195,"[6, 9, 5]",1,"[0, 1]",0,0,undefined,1,,There is a heart.,1,response,3,True
exh-only,False,There is a star.,True,2 + 5 = ?,2,,37200,,,"[1, 0]","[1, 0, 0]",32577,1,"[6, 3, 7]","[5, 0, 0]","[7, 7, 0]",,15.73195,"[7, 2, 5]",3,"[1, 0]",0,0,undefined,0,,7 + 0 = ?,1,response,3,False
exh-only,True,Some of the symbols are stars.,True,Some of the symbols are diamonds.,0,,8372,,,"[1, 0]","[0, 0, 0]",2435,0,"[6, 4, 7]","[0, 0, 0]","[4, 5, 1]",,15.73195,"[0, 3, 9]",1,"[1, 0]",0,0,undefined,0,,Some of the symbols are hearts.,1,filler,3,True
exh-only,False,Some of the symbols are triangles.,False,2 + 6 = ?,0,,7292,,,"[0, 1]","[5, 0, 0]",2627,0,"[9, 8, 1]","[8, 0, 0]","[5, 5, 0]",,15.73195,"[8, 2, 6]",3,"[1, 0]",0,1,undefined,0,,5 + 0 = ?,1,filler,3,True
exh-only,True,There is a circle.,True,There is a heart.,2,,130598,,,"[0, 1]","[0, 0, 0]",125176,0,"[7, 6, 1]","[0, 0, 0]","[4, 0, 3]",,15.73195,"[4, 8, 0]",0,"[1, 0]",1,1,undefined,0,,There is a heart.,1,response,3,True
exh-only,True,There are four squares.,True,There are only four spades.,1,,9140,,,"[0, 1]","[0, 0, 0]",2446,0,"[5, 7, 8]","[0, 0, 0]","[9, 4, 7]",,15.73195,"[3, 4, 7]",2,"[1, 0]",1,1,undefined,0,,There are only four triangles.,1,response,3,True
exh-only,True,There is a heart.,True,There is only a tick.,2,,7920,,,"[1, 0]","[0, 0, 0]",2836,0,"[4, 6, 1]","[0, 0, 0]","[9, 1, 5]",,15.73195,"[2, 0, 6]",2,"[1, 0]",0,0,undefined,0,,There is only a triangle.,1,filler,3,True
exh-only,True,There is a square.,True,There is only a diamond.,2,,12074,,,"[0, 1]","[0, 0, 0]",1810,1,"[5, 4, 3]","[0, 0, 0]","[1, 7, 5]",,15.73195,"[0, 6, 7]",2,"[0, 1]",1,1,undefined,1,,There is only a club.,1,response,3,True
exh-only,True,There is a square.,True,There is a circle.,2,,4190,,,"[1, 0]","[0, 0, 0]",931,0,"[5, 9, 0]","[0, 0, 0]","[9, 2, 4]",,15.73195,"[7, 9, 1]",0,"[1, 0]",0,0,undefined,0,,There is a triangle.,0,response,3,True
exh-only,True,Some of the symbols are notes.,True,Some of the symbols are diamonds.,0,,5865,,,"[0, 1]","[0, 0, 0]",1568,1,"[8, 0, 6]","[0, 0, 0]","[4, 5, 0]",,15.73195,"[0, 7, 4]",0,"[0, 1]",1,1,undefined,1,,Some of the symbols are hearts.,1,filler,3,True
exh-only,True,There is a club.,True,There is a club.,2,,2275,,,"[0, 1]","[0, 0, 0]",210,0,"[1, 2, 3]","[0, 0, 0]","[1, 4, 0]",,15.73195,"[1, 3, 4]",1,"[1, 0]",1,1,undefined,0,,There is a club.,1,response,3,True
exh-only,False,There is a heart.,False,There is only a square.,2,,562,,,"[0, 1]","[0, 0, 0]",187,1,"[4, 8, 7]","[0, 0, 0]","[4, 2, 8]",,15.73195,"[5, 3, 0]",2,"[1, 0]",0,1,undefined,0,,There is only a heart.,1,filler,3,False
exh-only,False,There is a triangle.,False,There is a spade.,2,,622,,,"[0, 1]","[0, 0, 0]",175,1,"[9, 8, 0]","[0, 0, 0]","[4, 9, 3]",,15.73195,"[3, 0, 7]",1,"[1, 0]",0,1,undefined,0,,There is a heart.,1,filler,3,False
exh-only,True,There is a diamond.,True,6 + 7 = ?,2,,716,,,"[1, 0]","[7, 0, 0]",394,1,"[0, 5, 2]","[7, 0, 0]","[1, 1, 0]",,15.73195,"[13, 6, 7]",3,"[0, 1]",0,0,undefined,1,,1 + 0 = ?,0,response,3,True
exh-only,False,Some of the symbols are spades.,True,8 + 3 = ?,0,,563,,,"[0, 1]","[7, 0, 0]",184,1,"[3, 2, 4]","[6, 0, 0]","[5, 1, 4]",,15.73195,"[11, 8, 3]",3,"[1, 0]",1,1,undefined,0,,1 + 4 = ?,0,filler,3,False
exh-only,False,There are four spades.,False,There are four clubs.,1,,531,,,"[0, 1]","[0, 0, 0]",166,0,"[3, 9, 2]","[0, 0, 0]","[9, 8, 1]",,15.73195,"[1, 6, 9]",0,"[1, 0]",0,1,undefined,0,,There are four triangles.,1,response,3,True
exh-only,False,There is a circle.,False,There is a spade.,2,,780,,,"[0, 1]","[0, 0, 0]",408,0,"[7, 8, 2]","[0, 0, 0]","[1, 8, 2]",,15.73195,"[3, 1, 5]",0,"[0, 1]",0,1,undefined,1,,There is a club.,0,response,3,False
exh-only,False,Some of the symbols are triangles.,False,Some of the symbols are diamonds.,0,,540,,,"[1, 0]","[0, 0, 0]",174,1,"[9, 2, 8]","[0, 0, 0]","[4, 9, 6]",,15.73195,"[0, 1, 7]",1,"[1, 0]",1,0,undefined,0,,Some of the symbols are hearts.,0,filler,3,False
exh-only,False,There are four stars.,True,There are four squares.,1,,518,,,"[1, 0]","[0, 0, 0]",152,1,"[6, 4, 5]","[0, 0, 0]","[8, 3, 0]",,15.73195,"[5, 7, 1]",1,"[1, 0]",0,0,undefined,0,,There are four notes.,0,response,3,False
exh-only,True,There are four spades.,True,There are four clubs.,1,,563,,,"[1, 0]","[0, 0, 0]",206,1,"[3, 8, 5]","[0, 0, 0]","[2, 6, 0]",,15.73195,"[1, 5, 4]",0,"[0, 1]",0,0,undefined,1,,There are four ticks.,0,filler,3,True
exh-only,True,There are four ticks.,True,There are four notes.,1,,532,,,"[1, 0]","[0, 0, 0]",176,1,"[2, 1, 0]","[0, 0, 0]","[3, 1, 2]",,15.73195,"[8, 5, 3]",1,"[0, 1]",0,0,undefined,1,,There are four spades.,1,filler,3,True
exh-only,True,There is a diamond.,True,4 + 2 = ?,2,,617,,,"[0, 1]","[4, 0, 0]",220,0,"[0, 1, 4]","[8, 0, 0]","[6, 4, 2]",,15.73195,"[6, 4, 2]",3,"[1, 0]",1,1,undefined,0,,4 + 2 = ?,1,filler,3,True
exh-only,False,Some of the symbols are squares.,True,Some of the symbols are spades.,0,,593,,,"[1, 0]","[0, 0, 0]",196,1,"[5, 8, 6]","[0, 0, 0]","[2, 3, 4]",,15.73195,"[3, 1, 5]",0,"[1, 0]",0,0,undefined,0,,Some of the symbols are ticks.,1,response,3,False
exh-only,False,Some of the symbols are circles.,False,Only some of the symbols are hearts.,0,,563,,,"[0, 1]","[0, 0, 0]",200,1,"[7, 8, 2]","[0, 0, 0]","[8, 9, 7]",,15.73195,"[4, 8, 6]",2,"[0, 1]",0,1,undefined,1,,Only some of the symbols are notes.,1,response,3,True
exh-only,False,Some of the symbols are stars.,True,Some of the symbols are triangles.,0,,549,,,"[0, 1]","[0, 0, 0]",160,1,"[6, 4, 2]","[0, 0, 0]","[9, 8, 0]",,15.73195,"[9, 5, 3]",1,"[1, 0]",1,1,undefined,0,,Some of the symbols are triangles.,1,filler,3,False
exh-only,True,There is a club.,True,There is only a circle.,2,,583,,,"[0, 1]","[0, 0, 0]",175,1,"[1, 6, 0]","[0, 0, 0]","[1, 5, 4]",,15.73195,"[7, 1, 2]",2,"[0, 1]",1,1,undefined,1,,There is only a club.,1,response,3,True
exh-only,True,There are four notes.,True,7 + 2 = ?,1,,578,,,"[0, 1]","[7, 0, 0]",183,1,"[8, 2, 7]","[9, 0, 0]","[10, 8, 2]",,15.73195,"[9, 7, 2]",3,"[0, 1]",1,1,undefined,1,,8 + 2 = ?,0,filler,3,True
exh-only,True,Some of the symbols are squares.,True,Some of the symbols are spades.,0,,587,,,"[1, 0]","[0, 0, 0]",215,1,"[5, 8, 6]","[0, 0, 0]","[1, 0, 2]",,15.73195,"[3, 4, 0]",0,"[0, 1]",0,0,undefined,1,,Some of the symbols are clubs.,0,response,3,True
exh-only,False,There is a spade.,True,There is a triangle.,2,,573,,,"[0, 1]","[0, 0, 0]",194,1,"[3, 7, 9]","[0, 0, 0]","[3, 5, 9]",,15.73195,"[9, 4, 5]",0,"[1, 0]",1,1,undefined,0,,There is a spade.,1,filler,3,False
exh-only,False,There is a star.,False,There is a circle.,2,,602,,,"[1, 0]","[0, 0, 0]",211,1,"[6, 2, 9]","[0, 0, 0]","[9, 7, 1]",,15.73195,"[7, 1, 8]",1,"[1, 0]",1,0,undefined,0,,There is a triangle.,1,filler,3,False
exh-only,False,There are four notes.,False,There are four triangles.,1,,567,,,"[1, 0]","[0, 0, 0]",180,1,"[8, 9, 0]","[0, 0, 0]","[2, 8, 9]",,15.73195,"[9, 6, 2]",0,"[1, 0]",1,0,undefined,0,,There are four ticks.,1,response,3,False
exh-only,False,Some of the symbols are squares.,False,Only some of the symbols are notes.,0,,621,,,"[1, 0]","[0, 0, 0]",217,1,"[5, 7, 9]","[0, 0, 0]","[6, 3, 4]",,15.73195,"[8, 2, 6]",2,"[1, 0]",1,0,undefined,0,,Only some of the symbols are stars.,1,filler,3,False
exh-only,False,Some of the symbols are spades.,False,Only some of the symbols are clubs.,0,,557,,,"[1, 0]","[0, 0, 0]",181,0,"[3, 2, 1]","[0, 0, 0]","[3, 2, 8]",,15.73195,"[1, 4, 7]",2,"[1, 0]",1,0,undefined,0,,Only some of the symbols are spades.,0,filler,3,True
exh-only,False,Some of the symbols are clubs.,False,Only some of the symbols are spades.,0,,561,,,"[0, 1]","[0, 0, 0]",162,0,"[1, 0, 4]","[0, 0, 0]","[4, 7, 8]",,15.73195,"[3, 9, 2]",2,"[1, 0]",0,1,undefined,0,,Only some of the symbols are hearts.,1,filler,3,True
exh-only,False,Some of the symbols are spades.,False,Some of the symbols are clubs.,0,,3586,,,"[1, 0]","[0, 0, 0]",176,0,"[3, 5, 1]","[0, 0, 0]","[5, 8, 2]",,15.73195,"[1, 7, 0]",1,"[0, 1]",1,0,undefined,1,,Some of the symbols are squares.,1,response,3,False
exh-only,False,Some of the symbols are stars.,False,Some of the symbols are spades.,0,,463,,,"[1, 0]","[0, 0, 0]",161,0,"[6, 0, 5]","[0, 0, 0]","[6, 9, 0]",,15.73195,"[3, 9, 0]",1,"[0, 1]",1,0,undefined,1,,Some of the symbols are stars.,1,response,3,False
exh-only,False,There is a diamond.,True,There is a triangle.,2,,691,,,"[0, 1]","[0, 0, 0]",137,0,"[0, 9, 4]","[0, 0, 0]","[4, 8, 3]",,15.73195,"[9, 0, 3]",0,"[0, 1]",1,1,undefined,1,,There is a heart.,0,filler,3,False
exh-only,False,There are four clubs.,False,There are four circles.,1,,547,,,"[0, 1]","[0, 0, 0]",185,1,"[1, 6, 8]","[0, 0, 0]","[0, 7, 4]",,15.73195,"[7, 8, 0]",0,"[0, 1]",0,1,undefined,1,,There are four diamonds.,0,response,3,True
exh-only,False,There is a square.,True,There is a diamond.,2,,552,,,"[1, 0]","[0, 0, 0]",189,0,"[5, 1, 9]","[0, 0, 0]","[9, 3, 5]",,15.73195,"[0, 2, 1]",1,"[0, 1]",0,0,undefined,1,,There is a triangle.,0,filler,3,False
exh-only,False,There is a star.,False,There is a triangle.,2,,709,,,"[1, 0]","[0, 0, 0]",355,0,"[6, 0, 9]","[0, 0, 0]","[5, 4, 3]",,15.73195,"[9, 4, 6]",0,"[1, 0]",1,0,undefined,0,,There is a square.,0,response,3,True
exh-only,False,There is a spade.,True,There is a heart.,2,,566,,,"[0, 1]","[0, 0, 0]",190,0,"[3, 4, 8]","[0, 0, 0]","[0, 3, 9]",,15.73195,"[4, 0, 8]",0,"[0, 1]",1,1,undefined,1,,There is a diamond.,0,filler,3,False
exh-only,False,There are four diamonds.,True,There are only four clubs.,1,,557,,,"[1, 0]","[0, 0, 0]",167,1,"[0, 8, 1]","[0, 0, 0]","[8, 7, 6]",,15.73195,"[1, 7, 3]",2,"[1, 0]",0,0,undefined,0,,There are only four notes.,0,filler,3,False
exh-only,False,There are four stars.,True,There are four clubs.,1,,575,,,"[1, 0]","[0, 0, 0]",190,0,"[6, 9, 2]","[0, 0, 0]","[4, 1, 6]",,15.73195,"[1, 6, 8]",0,"[0, 1]",0,0,undefined,1,,There are four hearts.,0,filler,3,False
exh-only,False,There is a square.,False,0 + 0 = ?,2,,585,,,"[0, 1]","[7, 0, 0]",201,1,"[5, 7, 8]","[4, 0, 0]","[13, 8, 5]",,15.73195,"[0, 0, 0]",3,"[0, 1]",0,1,undefined,1,,8 + 5 = ?,1,filler,3,True
exh-only,True,There are four triangles.,True,There are only four spades.,1,,569,,,"[1, 0]","[0, 0, 0]",220,0,"[9, 1, 3]","[0, 0, 0]","[2, 9, 6]",,15.73195,"[3, 6, 8]",2,"[1, 0]",0,0,undefined,0,,There are only four ticks.,0,filler,3,True
exh-only,False,There is a heart.,False,There is only a triangle.,2,,569,,,"[1, 0]","[0, 0, 0]",191,0,"[4, 6, 0]","[0, 0, 0]","[3, 4, 2]",,15.73195,"[9, 2, 5]",2,"[1, 0]",1,0,undefined,0,,There is only a spade.,0,filler,3,True
exh-only,False,There is a star.,False,There is only a triangle.,2,,1769,,,"[1, 0]","[0, 0, 0]",167,0,"[6, 2, 1]","[0, 0, 0]","[7, 4, 9]",,15.73195,"[9, 3, 5]",2,"[0, 1]",1,0,undefined,1,,There is only a circle.,1,filler,3,False
exh-only,False,There is a heart.,False,3 + 1 = ?,2,,798,,,"[0, 1]","[8, 0, 0]",226,0,"[4, 5, 6]","[0, 0, 0]","[9, 9, 0]",,15.73195,"[4, 3, 1]",3,"[0, 1]",0,1,undefined,1,,9 + 0 = ?,1,response,3,False
exh-only,False,There are four squares.,False,There are four squares.,1,,740,,,"[0, 1]","[0, 0, 0]",193,0,"[5, 4, 2]","[0, 0, 0]","[5, 2, 8]",,15.73195,"[5, 9, 0]",0,"[0, 1]",0,1,undefined,1,,There are four squares.,0,filler,3,False
exh-only,True,There is a tick.,True,There is a tick.,2,,581,,,"[1, 0]","[0, 0, 0]",188,1,"[2, 4, 1]","[0, 0, 0]","[5, 8, 6]",,15.73195,"[2, 5, 6]",1,"[0, 1]",0,0,undefined,1,,There is a square.,0,filler,3,True
exh-only,False,There are four hearts.,False,There are four clubs.,1,,625,,,"[0, 1]","[0, 0, 0]",192,0,"[4, 7, 1]","[0, 0, 0]","[4, 8, 9]",,15.73195,"[1, 0, 6]",0,"[1, 0]",0,1,undefined,0,,There are four hearts.,0,filler,3,True
exh-only,True,There are four circles.,True,4 + 0 = ?,1,,604,,,"[1, 0]","[0, 0, 0]",197,0,"[7, 9, 2]","[7, 0, 0]","[12, 4, 8]",,15.73195,"[4, 4, 0]",3,"[1, 0]",0,0,undefined,0,,4 + 8 = ?,0,response,3,True
exh-only,True,Some of the symbols are notes.,True,Only some of the symbols are clubs.,0,,564,,,"[1, 0]","[0, 0, 0]",199,1,"[8, 4, 3]","[0, 0, 0]","[9, 4, 8]",,15.73195,"[1, 5, 2]",2,"[0, 1]",0,0,undefined,1,,Only some of the symbols are triangles.,1,filler,3,True
exh-only,True,There are four diamonds.,True,There are four stars.,1,,788,,,"[0, 1]","[0, 0, 0]",356,0,"[0, 5, 4]","[0, 0, 0]","[0, 8, 9]",,15.73195,"[6, 7, 9]",1,"[1, 0]",1,1,undefined,0,,There are four diamonds.,0,filler,3,True
exh-only,True,Some of the symbols are spades.,True,4 + 7 = ?,0,,591,,,"[0, 1]","[8, 0, 0]",197,1,"[3, 2, 8]","[0, 0, 0]","[6, 1, 5]",,15.73195,"[11, 4, 7]",3,"[0, 1]",1,1,undefined,1,,1 + 5 = ?,1,response,3,True
exh-only,False,Some of the symbols are clubs.,False,Some of the symbols are spades.,0,,562,,,"[1, 0]","[0, 0, 0]",175,0,"[1, 0, 7]","[0, 0, 0]","[0, 3, 1]",,15.73195,"[3, 2, 0]",0,"[0, 1]",1,0,undefined,1,,Some of the symbols are diamonds.,0,filler,3,False
exh-only,False,There is a spade.,False,0 + 9 = ?,2,,642,,,"[0, 1]","[3, 0, 0]",224,0,"[3, 2, 9]","[7, 0, 0]","[9, 6, 3]",,15.73195,"[9, 0, 9]",3,"[0, 1]",0,1,undefined,1,,6 + 3 = ?,1,filler,3,False
exh-only,False,There is a heart.,False,There is only a triangle.,2,,682,,,"[1, 0]","[0, 0, 0]",183,0,"[4, 9, 7]","[0, 0, 0]","[4, 6, 8]",,15.73195,"[9, 2, 4]",2,"[0, 1]",1,0,undefined,1,,There is only a heart.,1,response,3,False
exh-only,False,There are four squares.,False,7 + 0 = ?,1,,620,,,"[0, 1]","[2, 0, 0]",179,1,"[5, 4, 6]","[2, 0, 0]","[12, 7, 5]",,15.73195,"[7, 7, 0]",3,"[0, 1]",0,1,undefined,1,,7 + 5 = ?,0,response,3,True
exh-only,False,There are four circles.,False,There are only four clubs.,1,,609,,,"[0, 1]","[0, 0, 0]",199,0,"[7, 3, 9]","[0, 0, 0]","[3, 8, 9]",,15.73195,"[1, 9, 6]",2,"[1, 0]",0,1,undefined,0,,There are only four spades.,0,response,3,True
exh-only,False,Some of the symbols are clubs.,False,Some of the symbols are triangles.,0,,648,,,"[1, 0]","[0, 0, 0]",245,1,"[1, 2, 6]","[0, 0, 0]","[9, 4, 7]",,15.73195,"[9, 5, 8]",0,"[0, 1]",1,0,undefined,1,,Some of the symbols are triangles.,1,response,3,True
exh-only,False,There are four hearts.,False,There are four ticks.,1,,616,,,"[0, 1]","[0, 0, 0]",267,0,"[4, 2, 7]","[0, 0, 0]","[5, 0, 6]",,15.73195,"[2, 6, 5]",1,"[0, 1]",0,1,undefined,1,,There are four squares.,1,response,3,False
exh-only,False,Some of the symbols are circles.,False,Some of the symbols are stars.,0,,550,,,"[0, 1]","[0, 0, 0]",198,0,"[7, 6, 5]","[0, 0, 0]","[4, 3, 2]",,15.73195,"[6, 0, 4]",0,"[0, 1]",0,1,undefined,1,,Some of the symbols are hearts.,0,filler,3,False
exh-only,False,There are four diamonds.,True,There are only four clubs.,1,,617,,,"[0, 1]","[0, 0, 0]",161,1,"[0, 2, 5]","[0, 0, 0]","[7, 3, 4]",,15.73195,"[1, 3, 7]",2,"[1, 0]",1,1,undefined,0,,There are only four circles.,1,response,3,False
exh-only,False,There is a circle.,False,8 + 1 = ?,2,,592,,,"[0, 1]","[9, 0, 0]",181,1,"[7, 6, 0]","[3, 0, 0]","[6, 4, 2]",,15.73195,"[9, 8, 1]",3,"[1, 0]",0,1,undefined,0,,4 + 2 = ?,1,response,3,False
exh-only,False,There are four hearts.,False,There are four triangles.,1,,644,,,"[1, 0]","[0, 0, 0]",231,1,"[4, 0, 3]","[0, 0, 0]","[9, 0, 7]",,15.73195,"[9, 3, 8]",1,"[0, 1]",1,0,undefined,1,,There are four triangles.,0,filler,3,True
exh-only,True,Some of the symbols are spades.,True,Some of the symbols are notes.,0,,4858,,,"[0, 1]","[0, 0, 0]",1029,1,"[3, 1, 4]","[0, 0, 0]","[9, 2, 0]",,15.73195,"[8, 3, 4]",0,"[0, 1]",1,1,undefined,1,,Some of the symbols are triangles.,0,filler,3,True
exh-only,True,There are four notes.,True,There are only four triangles.,1,,4082,,,"[1, 0]","[0, 0, 0]",1496,1,"[8, 1, 5]","[0, 0, 0]","[6, 0, 9]",,15.73195,"[9, 6, 4]",2,"[0, 1]",0,0,undefined,1,,There are only four stars.,1,filler,3,True
exh-only,True,Some of the symbols are spades.,True,8 + 1 = ?,0,,3617,,,"[1, 0]","[0, 0, 0]",1635,1,"[3, 8, 7]","[10, 0, 0]","[4, 0, 4]",,15.73195,"[9, 8, 1]",3,"[0, 1]",0,0,undefined,1,,0 + 4 = ?,0,response,3,True
exh-only,False,Some of the symbols are stars.,False,Only some of the symbols are ticks.,0,,4231,,,"[0, 1]","[0, 0, 0]",949,0,"[6, 3, 9]","[0, 0, 0]","[1, 5, 2]",,15.73195,"[2, 5, 9]",2,"[1, 0]",0,1,undefined,0,,Only some of the symbols are clubs.,0,response,3,True
exh-only,False,Some of the symbols are stars.,False,8 + 4 = ?,0,,4679,,,"[1, 0]","[2, 0, 0]",2519,0,"[6, 0, 7]","[7, 0, 0]","[10, 1, 9]",,15.73195,"[12, 8, 4]",3,"[1, 0]",1,0,undefined,0,,1 + 9 = ?,0,filler,3,True
exh-only,True,Some of the symbols are spades.,True,Some of the symbols are notes.,0,,4724,,,"[0, 1]","[0, 0, 0]",1147,0,"[3, 9, 2]","[0, 0, 0]","[0, 8, 5]",,15.73195,"[8, 3, 7]",1,"[1, 0]",1,1,undefined,0,,Some of the symbols are diamonds.,0,response,3,True
exh-only,True,There are four triangles.,True,There are four stars.,1,,3558,,,"[1, 0]","[0, 0, 0]",1706,1,"[9, 4, 3]","[0, 0, 0]","[6, 0, 3]",,15.73195,"[6, 1, 7]",1,"[0, 1]",0,0,undefined,1,,There are four stars.,1,filler,3,True
exh-only,True,Some of the symbols are circles.,True,Some of the symbols are circles.,0,,4277,,,"[0, 1]","[0, 0, 0]",1086,1,"[7, 5, 3]","[0, 0, 0]","[4, 1, 6]",,15.73195,"[7, 4, 6]",1,"[0, 1]",1,1,undefined,1,,Some of the symbols are hearts.,1,filler,3,True
exh-only,True,Some of the symbols are notes.,True,Only some of the symbols are clubs.,0,,3637,,,"[1, 0]","[0, 0, 0]",1095,0,"[8, 7, 4]","[0, 0, 0]","[6, 2, 5]",,15.73195,"[1, 0, 2]",2,"[1, 0]",0,0,undefined,0,,Only some of the symbols are stars.,0,response,3,True
exh-only,False,There are four stars.,False,0 + 3 = ?,1,,3061,,,"[1, 0]","[8, 0, 0]",1190,0,"[6, 2, 8]","[9, 0, 0]","[12, 6, 6]",,15.73195,"[3, 0, 3]",3,"[0, 1]",1,0,undefined,1,,6 + 6 = ?,1,response,3,False
exh-only,True,Some of the symbols are spades.,True,3 + 3 = ?,0,,3274,,,"[0, 1]","[6, 0, 0]",806,0,"[3, 9, 2]","[5, 0, 0]","[14, 6, 8]",,15.73195,"[6, 3, 3]",3,"[1, 0]",1,1,undefined,0,,6 + 8 = ?,0,filler,3,True
exh-only,True,There are four triangles.,True,There are only four stars.,1,,2802,,,"[0, 1]","[0, 0, 0]",1047,0,"[9, 1, 2]","[0, 0, 0]","[8, 9, 1]",,15.73195,"[6, 8, 9]",2,"[1, 0]",1,1,undefined,0,,There are only four notes.,1,filler,3,True
exh-only,False,There is a tick.,True,0 + 9 = ?,2,,3316,,,"[1, 0]","[3, 0, 0]",946,1,"[2, 8, 4]","[4, 0, 0]","[15, 8, 7]",,15.73195,"[9, 0, 9]",3,"[1, 0]",0,0,undefined,0,,8 + 7 = ?,1,filler,3,False
exh-only,False,There are four ticks.,True,There are four notes.,1,,968,,,"[0, 1]","[0, 0, 0]",179,1,"[2, 9, 4]","[0, 0, 0]","[0, 6, 5]",,15.73195,"[8, 3, 7]",1,"[1, 0]",1,1,undefined,0,,There are four diamonds.,0,response,3,False
exh-only,True,Some of the symbols are circles.,True,Only some of the symbols are clubs.,0,,547,,,"[0, 1]","[0, 0, 0]",190,1,"[7, 8, 0]","[0, 0, 0]","[7, 3, 8]",,15.73195,"[1, 5, 2]",2,"[0, 1]",1,1,undefined,1,,Only some of the symbols are circles.,1,response,3,True
exh-only,False,There are four circles.,True,9 + 2 = ?,1,,532,,,"[1, 0]","[0, 0, 0]",185,1,"[7, 4, 8]","[3, 0, 0]","[5, 4, 1]",,15.73195,"[11, 9, 2]",3,"[1, 0]",0,0,undefined,0,,4 + 1 = ?,1,filler,3,False
exh-only,False,There is a note.,False,There is a note.,2,,559,,,"[1, 0]","[0, 0, 0]",198,1,"[8, 5, 7]","[0, 0, 0]","[0, 1, 5]",,15.73195,"[8, 4, 5]",1,"[0, 1]",1,0,undefined,1,,There is a diamond.,1,response,3,True
exh-only,True,Some of the symbols are stars.,True,4 + 4 = ?,0,,548,,,"[1, 0]","[7, 0, 0]",213,1,"[6, 8, 9]","[7, 0, 0]","[11, 3, 8]",,15.73195,"[8, 4, 4]",3,"[0, 1]",0,0,undefined,1,,3 + 8 = ?,1,response,3,True
exh-only,False,There are four diamonds.,False,There are four notes.,1,,547,,,"[1, 0]","[0, 0, 0]",184,1,"[0, 9, 4]","[0, 0, 0]","[8, 3, 4]",,15.73195,"[8, 1, 6]",1,"[1, 0]",1,0,undefined,0,,There are four notes.,1,response,3,False
exh-only,True,There is a circle.,True,There is only a spade.,2,,559,,,"[0, 1]","[0, 0, 0]",191,1,"[7, 4, 2]","[0, 0, 0]","[0, 6, 3]",,15.73195,"[3, 5, 4]",2,"[0, 1]",1,1,undefined,1,,There is only a diamond.,1,response,3,True
exh-only,True,There is a triangle.,True,There is a heart.,2,,551,,,"[0, 1]","[0, 0, 0]",170,1,"[9, 6, 0]","[0, 0, 0]","[6, 5, 4]",,15.73195,"[4, 8, 5]",0,"[0, 1]",1,1,undefined,1,,There is a star.,1,filler,3,True
exh-only,False,There is a note.,True,There is a diamond.,2,,575,,,"[1, 0]","[0, 0, 0]",186,1,"[8, 2, 5]","[0, 0, 0]","[9, 3, 0]",,15.73195,"[0, 9, 4]",1,"[1, 0]",0,0,undefined,0,,There is a triangle.,1,response,3,False
exh-only,False,There are four notes.,True,8 + 9 = ?,1,,810,,,"[1, 0]","[1, 0, 0]",231,1,"[8, 0, 9]","[0, 0, 0]","[13, 6, 7]",,15.73195,"[17, 8, 9]",3,"[1, 0]",0,0,undefined,0,,6 + 7 = ?,1,response,3,False
exh-only,False,There are four stars.,False,There are four diamonds.,1,,569,,,"[1, 0]","[0, 0, 0]",166,1,"[6, 0, 2]","[0, 0, 0]","[8, 5, 4]",,15.73195,"[0, 5, 1]",0,"[1, 0]",1,0,undefined,0,,There are four notes.,1,response,3,False
exh-only,False,There are four ticks.,False,0 + 5 = ?,1,,557,,,"[1, 0]","[7, 0, 0]",157,1,"[2, 8, 1]","[0, 0, 0]","[11, 4, 7]",,15.73195,"[5, 0, 5]",3,"[0, 1]",1,0,undefined,1,,4 + 7 = ?,1,filler,3,True
exh-only,False,Some of the symbols are circles.,True,3 + 8 = ?,0,,1151,,,"[0, 1]","[4, 0, 0]",770,1,"[7, 2, 6]","[7, 0, 0]","[10, 2, 8]",,15.73195,"[11, 3, 8]",3,"[1, 0]",1,1,undefined,0,,2 + 8 = ?,1,response,3,False
exh-only,True,There are four diamonds.,True,There are only four spades.,1,,425325,,,"[0, 1]","[0, 0, 0]",1275,1,"[0, 4, 7]","[0, 0, 0]","[6, 0, 8]",,15.73195,"[3, 0, 5]",2,"[0, 1]",1,1,undefined,1,,There are only four stars.,1,response,3,True
exh-only,True,Some of the symbols are diamonds.,True,Some of the symbols are notes.,0,,5889,,,"[0, 1]","[0, 0, 0]",2931,0,"[0, 8, 1]","[0, 0, 0]","[2, 8, 7]",,15.73195,"[8, 2, 3]",1,"[1, 0]",1,1,undefined,0,,Some of the symbols are ticks.,1,response,3,True
exh-only,True,Some of the symbols are circles.,True,Some of the symbols are ticks.,0,,4515,,,"[1, 0]","[0, 0, 0]",1307,1,"[7, 9, 5]","[0, 0, 0]","[0, 6, 5]",,15.73195,"[2, 9, 4]",0,"[0, 1]",0,0,undefined,1,,Some of the symbols are diamonds.,0,response,3,True
,,,,,,"[0, 'Barbara']",,1,Barbara,,,,,,,,,11.896933333333333,,,,,,undefined,,bot_check,,,,4,
exh-only,False,Some of the symbols are hearts.,False,9 + 8 = ?,0,,15165,,,"[0, 1]","[3, 0, 0]",7530,1,"[4, 7, 5]","[3, 0, 0]","[11, 3, 8]",,11.896933333333333,"[17, 9, 8]",3,"[1, 0]",0,1,undefined,0,,3 + 8 = ?,1,response,4,False
exh-only,True,There is a triangle.,True,There is only a star.,2,,10380,,,"[1, 0]","[0, 0, 0]",3619,0,"[9, 8, 2]","[0, 0, 0]","[4, 2, 0]",,11.896933333333333,"[6, 3, 9]",2,"[1, 0]",0,0,undefined,0,,There is only a heart.,1,filler,4,True
exh-only,True,Some of the symbols are stars.,True,Some of the symbols are stars.,0,,11009,,,"[1, 0]","[0, 0, 0]",3240,0,"[6, 2, 5]","[0, 0, 0]","[5, 2, 7]",,11.896933333333333,"[6, 8, 0]",1,"[1, 0]",0,0,undefined,0,,Some of the symbols are squares.,1,filler,4,True
exh-only,True,There is a diamond.,True,There is only a tick.,2,,11864,,,"[1, 0]","[0, 0, 0]",5737,1,"[0, 9, 1]","[0, 0, 0]","[5, 7, 8]",,11.896933333333333,"[2, 7, 5]",2,"[0, 1]",0,0,undefined,1,,There is only a square.,1,response,4,True
exh-only,True,There are four hearts.,True,There are four hearts.,1,,14246,,,"[1, 0]","[0, 0, 0]",3409,1,"[4, 6, 0]","[0, 0, 0]","[8, 5, 0]",,11.896933333333333,"[4, 2, 8]",0,"[0, 1]",0,0,undefined,1,,There are four notes.,1,filler,4,True
exh-only,False,There is a heart.,True,7 + 7 = ?,2,,10252,,,"[1, 0]","[7, 0, 0]",3306,1,"[4, 9, 1]","[5, 0, 0]","[10, 2, 8]",,11.896933333333333,"[14, 7, 7]",3,"[1, 0]",0,0,undefined,0,,2 + 8 = ?,1,filler,4,False
exh-only,False,There is a star.,True,3 + 4 = ?,2,,9906,,,"[0, 1]","[6, 0, 0]",4369,0,"[6, 8, 3]","[2, 0, 0]","[11, 8, 3]",,11.896933333333333,"[7, 3, 4]",3,"[0, 1]",1,1,undefined,1,,8 + 3 = ?,0,response,4,False
exh-only,False,Some of the symbols are clubs.,False,4 + 9 = ?,0,,18970,,,"[0, 1]","[1, 0, 0]",13283,1,"[1, 3, 4]","[0, 0, 0]","[16, 9, 7]",,11.896933333333333,"[13, 4, 9]",3,"[1, 0]",0,1,undefined,0,,9 + 7 = ?,1,filler,4,False
exh-only,True,Some of the symbols are hearts.,True,Only some of the symbols are hearts.,0,,8196,,,"[0, 1]","[0, 0, 0]",2023,1,"[4, 5, 1]","[0, 0, 0]","[7, 0, 4]",,11.896933333333333,"[4, 7, 6]",2,"[0, 1]",1,1,undefined,1,,Only some of the symbols are circles.,1,filler,4,True
exh-only,True,Some of the symbols are notes.,True,Some of the symbols are hearts.,0,,8913,,,"[1, 0]","[0, 0, 0]",2343,1,"[8, 5, 4]","[0, 0, 0]","[5, 6, 2]",,11.896933333333333,"[4, 5, 3]",0,"[0, 1]",0,0,undefined,1,,Some of the symbols are squares.,1,filler,4,True
exh-only,True,There are four ticks.,True,There are four hearts.,1,,7081,,,"[0, 1]","[0, 0, 0]",2701,0,"[2, 6, 4]","[0, 0, 0]","[0, 3, 7]",,11.896933333333333,"[4, 3, 5]",0,"[1, 0]",1,1,undefined,0,,There are four diamonds.,1,filler,4,True
exh-only,True,There is a club.,True,9 + 1 = ?,2,,6191,,,"[1, 0]","[9, 0, 0]",2360,1,"[1, 6, 0]","[3, 0, 0]","[3, 0, 3]",,11.896933333333333,"[10, 9, 1]",3,"[0, 1]",0,0,undefined,1,,0 + 3 = ?,1,filler,4,True
exh-only,True,There is a circle.,True,There is a triangle.,2,,5648,,,"[1, 0]","[0, 0, 0]",1792,1,"[7, 8, 0]","[0, 0, 0]","[0, 8, 6]",,11.896933333333333,"[9, 2, 8]",0,"[0, 1]",0,0,undefined,1,,There is a diamond.,1,filler,4,True
exh-only,True,There is a note.,True,4 + 3 = ?,2,,5576,,,"[0, 1]","[0, 0, 0]",2080,0,"[8, 1, 4]","[3, 0, 0]","[12, 9, 3]",,11.896933333333333,"[7, 4, 3]",3,"[1, 0]",1,1,undefined,0,,9 + 3 = ?,0,response,4,True
exh-only,True,Some of the symbols are spades.,True,5 + 3 = ?,0,,6142,,,"[1, 0]","[7, 0, 0]",2772,1,"[3, 1, 5]","[1, 0, 0]","[6, 2, 4]",,11.896933333333333,"[8, 5, 3]",3,"[0, 1]",0,0,undefined,1,,2 + 4 = ?,1,filler,4,True
exh-only,True,There is a tick.,True,There is only a club.,2,,5346,,,"[1, 0]","[0, 0, 0]",1889,1,"[2, 3, 0]","[0, 0, 0]","[8, 4, 0]",,11.896933333333333,"[1, 5, 6]",2,"[0, 1]",0,0,undefined,1,,There is only a note.,1,filler,4,True
exh-only,True,Some of the symbols are spades.,True,Only some of the symbols are triangles.,0,,7304,,,"[0, 1]","[0, 0, 0]",2174,0,"[3, 9, 4]","[0, 0, 0]","[7, 2, 5]",,11.896933333333333,"[9, 8, 4]",2,"[1, 0]",1,1,undefined,0,,Only some of the symbols are circles.,1,response,4,True
exh-only,True,There are four notes.,True,There are four squares.,1,,5592,,,"[0, 1]","[0, 0, 0]",2405,1,"[8, 6, 0]","[0, 0, 0]","[9, 6, 3]",,11.896933333333333,"[5, 8, 2]",1,"[0, 1]",1,1,undefined,1,,There are four triangles.,1,response,4,True
exh-only,False,Some of the symbols are spades.,True,0 + 5 = ?,0,,5219,,,"[0, 1]","[2, 0, 0]",1682,0,"[3, 0, 9]","[6, 0, 0]","[3, 1, 2]",,11.896933333333333,"[5, 0, 5]",3,"[0, 1]",1,1,undefined,1,,1 + 2 = ?,1,response,4,False
exh-only,True,There is a heart.,True,There is a tick.,2,,6675,,,"[0, 1]","[0, 0, 0]",2731,0,"[4, 9, 7]","[0, 0, 0]","[2, 5, 0]",,11.896933333333333,"[2, 9, 0]",0,"[1, 0]",1,1,undefined,0,,There is a tick.,0,response,4,True
exh-only,False,There is a heart.,False,There is a circle.,2,,10926,,,"[0, 1]","[0, 0, 0]",1969,0,"[4, 6, 7]","[0, 0, 0]","[6, 2, 8]",,11.896933333333333,"[7, 6, 1]",1,"[0, 1]",0,1,undefined,1,,There is a star.,1,filler,4,False
exh-only,True,Some of the symbols are diamonds.,True,Some of the symbols are diamonds.,0,,6811,,,"[0, 1]","[0, 0, 0]",2303,1,"[0, 9, 5]","[0, 0, 0]","[5, 0, 4]",,11.896933333333333,"[0, 7, 5]",0,"[0, 1]",1,1,undefined,1,,Some of the symbols are squares.,1,response,4,True
exh-only,True,There is a tick.,True,There is only a tick.,2,,5412,,,"[0, 1]","[0, 0, 0]",1666,0,"[2, 0, 5]","[0, 0, 0]","[1, 5, 0]",,11.896933333333333,"[2, 5, 1]",2,"[1, 0]",1,1,undefined,0,,There is only a club.,0,response,4,True
exh-only,True,Some of the symbols are clubs.,True,Some of the symbols are squares.,0,,7107,,,"[1, 0]","[0, 0, 0]",2000,0,"[1, 7, 8]","[0, 0, 0]","[1, 5, 3]",,11.896933333333333,"[5, 8, 7]",0,"[1, 0]",0,0,undefined,0,,Some of the symbols are clubs.,1,filler,4,True
exh-only,True,There are four spades.,True,There are four stars.,1,,5745,,,"[0, 1]","[0, 0, 0]",2016,0,"[3, 6, 8]","[0, 0, 0]","[5, 9, 3]",,11.896933333333333,"[6, 7, 5]",1,"[1, 0]",1,1,undefined,0,,There are four squares.,1,filler,4,True
exh-only,True,Some of the symbols are hearts.,True,Only some of the symbols are clubs.,0,,8102,,,"[0, 1]","[0, 0, 0]",2313,0,"[4, 1, 2]","[0, 0, 0]","[0, 3, 8]",,11.896933333333333,"[1, 4, 8]",2,"[1, 0]",1,1,undefined,0,,Only some of the symbols are diamonds.,1,response,4,True
exh-only,False,There is a circle.,False,There is a spade.,2,,7855,,,"[0, 1]","[0, 0, 0]",2208,0,"[7, 2, 0]","[0, 0, 0]","[7, 8, 5]",,11.896933333333333,"[3, 9, 5]",1,"[0, 1]",0,1,undefined,1,,There is a circle.,0,response,4,False
exh-only,False,There are four spades.,True,2 + 0 = ?,1,,5561,,,"[0, 1]","[6, 0, 0]",1951,0,"[3, 7, 2]","[9, 0, 0]","[11, 9, 2]",,11.896933333333333,"[2, 2, 0]",3,"[0, 1]",1,1,undefined,1,,9 + 2 = ?,1,response,4,False
exh-only,False,There is a square.,True,3 + 2 = ?,2,,6477,,,"[1, 0]","[9, 0, 0]",2940,1,"[5, 8, 2]","[1, 0, 0]","[7, 3, 4]",,11.896933333333333,"[5, 3, 2]",3,"[1, 0]",0,0,undefined,0,,3 + 4 = ?,0,response,4,False
exh-only,True,Some of the symbols are circles.,True,Some of the symbols are spades.,0,,6789,,,"[1, 0]","[0, 0, 0]",1771,1,"[7, 8, 4]","[0, 0, 0]","[7, 1, 6]",,11.896933333333333,"[3, 4, 1]",1,"[0, 1]",0,0,undefined,1,,Some of the symbols are circles.,1,response,4,True
exh-only,True,There are four ticks.,True,There are only four triangles.,1,,4789,,,"[1, 0]","[0, 0, 0]",1595,1,"[2, 1, 7]","[0, 0, 0]","[1, 3, 2]",,11.896933333333333,"[9, 4, 6]",2,"[0, 1]",0,0,undefined,1,,There are only four clubs.,1,filler,4,True
exh-only,True,There are four spades.,True,There are four clubs.,1,,4535,,,"[0, 1]","[0, 0, 0]",1587,0,"[3, 7, 4]","[0, 0, 0]","[0, 1, 2]",,11.896933333333333,"[1, 0, 5]",1,"[1, 0]",1,1,undefined,0,,There are four diamonds.,1,response,4,True
