pOSymbols,slide_number,audio,btwncondition,goodPOChoice,pTwrongAnswer,pTChoice,Answer.time_in_minutes,primeType,pOwrongAnswer,responseSymbols,workerid,pTSentence,goodPTChoice,Answer.condition,trial_type,pOSentence,correctPChoices,response,image,primeStrength,responseSentence,correctPOChoice,correctPTChoice,slide_type,response_rt,primeOShuffle,pTSymbols,primeTShuffle,responseChoice,pOChoice,block_rt
,1,,,,,,7.810616666666666,,,,0,,,undefined,,,,"[0, 'Barbara']",Barbara,,,,,bot_check,,,,,,,
"[1, 0, 1]",,,exh-only,1,"[3, 0, 0]",1,7.810616666666666,2,"[2, 0, 0]","[6, 8, 4]",0,9 + 7 = ?,1,undefined,response,0 + 1 = ?,False,,,3,There is a star.,False,True,,1944,"[0, 1]","[16, 9, 7]","[0, 1]",1,0,6864
"[1, 5, 2]",,,exh-only,0,"[0, 0, 0]",1,7.810616666666666,2,"[0, 0, 0]","[8, 5, 2]",0,There is a tick.,1,undefined,response,There is a club.,True,,,0,There is a note.,True,True,,2575,"[1, 0]","[2, 4, 6]","[0, 1]",1,0,8776
"[6, 5, 1]",,,exh-only,1,"[0, 0, 0]",1,7.810616666666666,2,"[0, 0, 0]","[7, 8, 6]",0,There is a club.,1,undefined,response,There is a star.,True,,,0,There is a circle.,True,True,,1887,"[0, 1]","[1, 0, 9]","[0, 1]",1,1,7184
"[17, 9, 8]",,,exh-only,1,"[6, 0, 0]",0,7.810616666666666,0,"[7, 0, 0]","[5, 1, 3]",0,8 + 6 = ?,1,undefined,response,9 + 8 = ?,False,,,3,Some of the symbols are squares.,True,False,,2631,"[0, 1]","[14, 8, 6]","[0, 1]",1,1,7576
"[8, 0, 8]",,,exh-only,1,"[6, 0, 0]",0,7.810616666666666,2,"[0, 0, 0]","[1, 4, 2]",0,2 + 6 = ?,0,undefined,response,0 + 8 = ?,True,,,3,There is a club.,True,True,,2112,"[0, 1]","[8, 2, 6]","[1, 0]",1,1,6465
"[4, 0, 2]",,,exh-only,1,"[0, 0, 0]",0,7.810616666666666,0,"[0, 0, 0]","[2, 4, 9]",0,Only some of the symbols are spades.,0,undefined,response,Only some of the symbols are hearts.,True,,,2,Some of the symbols are ticks.,True,True,,3439,"[0, 1]","[3, 5, 8]","[1, 0]",1,1,10040
"[5, 0, 8]",,,exh-only,1,"[0, 0, 0]",0,7.810616666666666,1,"[0, 0, 0]","[8, 9, 4]",0,There are only four notes.,0,undefined,filler,There are only four squares.,True,,,2,There are four notes.,True,True,,1815,"[0, 1]","[8, 6, 2]","[1, 0]",1,1,6969
"[4, 3, 2]",,,exh-only,0,"[0, 0, 0]",1,7.810616666666666,2,"[0, 0, 0]","[5, 0, 7]",0,There is a tick.,1,undefined,filler,There is a heart.,True,,,1,There is a square.,True,True,,2583,"[1, 0]","[2, 6, 3]","[0, 1]",1,0,9320
"[2, 3, 0]",,,exh-only,0,"[0, 0, 0]",0,7.810616666666666,0,"[0, 0, 0]","[3, 8, 0]",0,Some of the symbols are squares.,0,undefined,response,Some of the symbols are ticks.,True,,,1,Some of the symbols are spades.,True,True,,2336,"[1, 0]","[5, 3, 1]","[1, 0]",1,0,7905
"[11, 3, 8]",,,exh-only,0,"[2, 0, 0]",0,7.810616666666666,1,"[2, 0, 0]","[9, 1, 8]",0,3 + 6 = ?,1,undefined,filler,3 + 8 = ?,False,,,3,There are four triangles.,False,False,,2031,"[1, 0]","[9, 3, 6]","[0, 1]",1,1,6768
"[2, 1, 8]",,,exh-only,0,"[0, 0, 0]",0,7.810616666666666,1,"[0, 0, 0]","[3, 1, 7]",0,There are four notes.,0,undefined,response,There are four ticks.,True,,,1,There are four spades.,True,True,,2439,"[1, 0]","[8, 0, 2]","[1, 0]",1,0,7064
"[4, 0, 9]",,,exh-only,0,"[0, 0, 0]",1,7.810616666666666,1,"[0, 0, 0]","[4, 8, 9]",0,There are only four clubs.,1,undefined,response,There are only four hearts.,True,,,2,There are four hearts.,True,True,,2952,"[1, 0]","[1, 0, 6]","[0, 1]",1,0,7225
"[3, 6, 2]",,,exh-only,1,"[0, 0, 0]",0,7.810616666666666,2,"[0, 0, 0]","[9, 3, 1]",0,There is a square.,0,undefined,filler,There is a spade.,True,,,1,There is a triangle.,True,True,,2759,"[0, 1]","[5, 9, 0]","[1, 0]",1,1,7184
"[9, 8, 1]",,,exh-only,1,"[5, 0, 0]",0,7.810616666666666,0,"[6, 0, 0]","[7, 4, 2]",0,8 + 3 = ?,0,undefined,response,8 + 1 = ?,True,,,3,Some of the symbols are circles.,True,True,,2303,"[0, 1]","[11, 8, 3]","[1, 0]",1,1,7096
"[7, 5, 8]",,,exh-only,0,"[0, 0, 0]",0,7.810616666666666,1,"[0, 0, 0]","[7, 1, 3]",0,There are four squares.,0,undefined,response,There are four circles.,True,,,1,There are four circles.,True,True,,1896,"[1, 0]","[5, 3, 2]","[1, 0]",1,0,9009
"[4, 5, 2]",,,exh-only,0,"[0, 0, 0]",0,7.810616666666666,2,"[0, 0, 0]","[4, 2, 5]",0,There is only a heart.,0,undefined,response,There is only a heart.,True,,,2,There is a heart.,True,True,,1664,"[1, 0]","[4, 1, 8]","[1, 0]",1,0,8568
"[1, 5, 9]",,,exh-only,0,"[0, 0, 0]",0,7.810616666666666,0,"[0, 0, 0]","[7, 0, 6]",0,Some of the symbols are stars.,0,undefined,response,Some of the symbols are clubs.,True,,,1,Some of the symbols are circles.,True,True,,1119,"[1, 0]","[6, 4, 0]","[1, 0]",1,0,6256
"[8, 6, 7]",,,exh-only,0,"[0, 0, 0]",1,7.810616666666666,1,"[0, 0, 0]","[9, 3, 0]",0,There are only four diamonds.,1,undefined,response,There are only four notes.,True,,,2,There are four triangles.,True,True,,1288,"[1, 0]","[0, 9, 3]","[0, 1]",1,0,4009
"[7, 5, 9]",,,exh-only,1,"[0, 0, 0]",0,7.810616666666666,2,"[0, 0, 0]","[6, 1, 9]",0,There is a note.,0,undefined,filler,There is a circle.,True,,,1,There is a star.,True,True,,1208,"[0, 1]","[8, 6, 3]","[1, 0]",1,1,3784
"[16, 9, 7]",,,exh-only,0,"[9, 0, 0]",1,7.810616666666666,1,"[3, 0, 0]","[3, 5, 2]",0,1 + 7 = ?,1,undefined,response,9 + 7 = ?,True,,,3,There are four spades.,True,True,,2119,"[1, 0]","[8, 1, 7]","[0, 1]",1,0,4840
"[3, 9, 6]",,,exh-only,0,"[0, 0, 0]",1,7.810616666666666,2,"[0, 0, 0]","[9, 7, 2]",0,There is a circle.,1,undefined,filler,There is a spade.,True,,,0,There is a triangle.,True,True,,888,"[1, 0]","[7, 0, 1]","[0, 1]",1,0,3905
"[2, 6, 8]",,,exh-only,0,"[0, 0, 0]",0,7.810616666666666,2,"[0, 0, 0]","[9, 2, 0]",0,There is only a circle.,0,undefined,filler,There is only a tick.,True,,,2,There is a triangle.,True,True,,903,"[1, 0]","[7, 3, 5]","[1, 0]",1,0,3160
"[6, 9, 2]",,,exh-only,1,"[0, 0, 0]",1,7.810616666666666,2,"[0, 0, 0]","[8, 3, 6]",0,There is a tick.,1,undefined,filler,There is a star.,True,,,0,There is a note.,True,True,,847,"[0, 1]","[2, 6, 0]","[0, 1]",1,1,3184
"[2, 3, 6]",,,exh-only,0,"[0, 0, 0]",1,7.810616666666666,1,"[0, 0, 0]","[0, 7, 1]",0,There are four diamonds.,1,undefined,filler,There are four ticks.,True,,,1,There are four diamonds.,True,True,,959,"[1, 0]","[0, 2, 8]","[0, 1]",1,0,3064
"[4, 1, 3]",,,exh-only,1,"[0, 0, 0]",1,7.810616666666666,2,"[0, 0, 0]","[4, 0, 9]",0,There is only a note.,1,undefined,filler,There is only a heart.,True,,,2,There is a heart.,True,True,,904,"[0, 1]","[8, 3, 1]","[0, 1]",1,1,3713
"[1, 5, 8]",,,exh-only,0,"[0, 0, 0]",1,7.810616666666666,2,"[0, 0, 0]","[9, 1, 0]",0,There is only a note.,1,undefined,response,There is only a club.,True,,,2,There is a triangle.,True,True,,944,"[1, 0]","[8, 7, 4]","[0, 1]",1,0,2912
"[7, 4, 2]",,,exh-only,0,"[0, 0, 0]",0,7.810616666666666,1,"[0, 0, 0]","[4, 0, 8]",0,There are four ticks.,0,undefined,response,There are four circles.,True,,,0,There are four hearts.,True,True,,1143,"[1, 0]","[2, 9, 0]","[1, 0]",1,0,4688
"[6, 2, 1]",,,exh-only,1,"[0, 0, 0]",0,7.810616666666666,1,"[0, 0, 0]","[4, 2, 8]",0,There are four notes.,0,undefined,filler,There are four stars.,True,,,1,There are four hearts.,True,True,,728,"[0, 1]","[8, 0, 5]","[1, 0]",1,1,3521
"[9, 6, 7]",,,exh-only,0,"[0, 0, 0]",1,7.810616666666666,1,"[0, 0, 0]","[7, 0, 8]",0,There are four notes.,1,undefined,filler,There are four triangles.,True,,,1,There are four circles.,True,True,,895,"[1, 0]","[8, 1, 4]","[0, 1]",1,0,2791
"[1, 9, 3]",,,exh-only,1,"[0, 0, 0]",0,7.810616666666666,0,"[0, 0, 0]","[7, 2, 6]",0,Only some of the symbols are notes.,0,undefined,response,Only some of the symbols are clubs.,True,,,2,Some of the symbols are circles.,True,True,,744,"[0, 1]","[8, 6, 5]","[1, 0]",1,1,3961
"[8, 2, 1]",,,exh-only,0,"[0, 0, 0]",0,7.810616666666666,0,"[0, 0, 0]","[0, 4, 5]",0,Only some of the symbols are clubs.,0,undefined,response,Only some of the symbols are notes.,True,,,2,Some of the symbols are diamonds.,True,True,,1031,"[1, 0]","[1, 3, 7]","[1, 0]",1,0,6552
"[6, 1, 0]",,,exh-only,0,"[0, 0, 0]",1,7.810616666666666,0,"[0, 0, 0]","[9, 8, 4]",0,Some of the symbols are spades.,1,undefined,filler,Some of the symbols are stars.,True,,,0,Some of the symbols are triangles.,True,True,,1272,"[1, 0]","[3, 5, 2]","[0, 1]",1,0,5201
"[15, 9, 6]",,,exh-only,0,"[1, 0, 0]",1,7.810616666666666,2,"[9, 0, 0]","[6, 8, 4]",0,0 + 5 = ?,1,undefined,response,9 + 6 = ?,True,,,3,There is a star.,True,True,,935,"[1, 0]","[5, 0, 5]","[0, 1]",1,0,4720
"[6, 1, 5]",,,exh-only,0,"[0, 0, 0]",0,7.810616666666666,1,"[0, 0, 0]","[6, 1, 7]",0,There are only four stars.,0,undefined,filler,There are only four stars.,True,,,2,There are four stars.,True,True,,983,"[1, 0]","[6, 1, 0]","[1, 0]",1,0,3400
"[3, 0, 3]",,,exh-only,1,"[4, 0, 0]",1,7.810616666666666,0,"[9, 0, 0]","[4, 7, 8]",0,4 + 1 = ?,1,undefined,response,0 + 3 = ?,False,,,3,Some of the symbols are hearts.,False,True,,784,"[0, 1]","[5, 4, 1]","[0, 1]",1,0,3297
"[13, 4, 9]",,,exh-only,0,"[6, 0, 0]",1,7.810616666666666,2,"[9, 0, 0]","[0, 6, 7]",0,5 + 1 = ?,1,undefined,filler,4 + 9 = ?,False,,,3,There is a diamond.,False,True,,1047,"[1, 0]","[6, 5, 1]","[0, 1]",1,1,4632
"[6, 3, 8]",,,exh-only,1,"[0, 0, 0]",0,7.810616666666666,2,"[0, 0, 0]","[4, 0, 3]",0,There is a square.,0,undefined,response,There is a star.,True,,,1,There is a heart.,True,True,,663,"[0, 1]","[5, 1, 4]","[1, 0]",1,1,3048
"[1, 4, 9]",,,exh-only,0,"[0, 0, 0]",1,7.810616666666666,0,"[0, 0, 0]","[6, 1, 4]",0,Some of the symbols are stars.,1,undefined,filler,Some of the symbols are clubs.,True,,,0,Some of the symbols are stars.,True,True,,672,"[1, 0]","[6, 7, 8]","[0, 1]",1,0,3585
"[0, 2, 1]",,,exh-only,0,"[0, 0, 0]",0,7.810616666666666,2,"[0, 0, 0]","[9, 1, 3]",0,There is a club.,0,undefined,response,There is a diamond.,True,,,1,There is a triangle.,True,True,,1072,"[1, 0]","[1, 5, 0]","[1, 0]",1,0,3288
"[7, 0, 4]",,,exh-only,0,"[0, 0, 0]",0,7.810616666666666,0,"[0, 0, 0]","[7, 6, 3]",0,Some of the symbols are ticks.,0,undefined,filler,Some of the symbols are circles.,True,,,1,Some of the symbols are circles.,True,True,,1391,"[1, 0]","[2, 4, 9]","[1, 0]",1,0,3872
"[7, 1, 6]",,,exh-only,0,"[0, 0, 0]",0,7.810616666666666,2,"[0, 0, 0]","[0, 9, 2]",0,There is a spade.,0,undefined,filler,There is a circle.,True,,,0,There is a diamond.,True,True,,783,"[1, 0]","[3, 9, 7]","[1, 0]",1,0,3256
"[2, 3, 9]",,,exh-only,1,"[0, 0, 0]",1,7.810616666666666,1,"[0, 0, 0]","[6, 2, 1]",0,There are only four ticks.,1,undefined,filler,There are only four ticks.,True,,,2,There are four stars.,True,True,,648,"[0, 1]","[2, 5, 8]","[0, 1]",1,1,2921
"[8, 3, 9]",,,exh-only,0,"[0, 0, 0]",1,7.810616666666666,0,"[0, 0, 0]","[6, 0, 9]",0,Some of the symbols are circles.,1,undefined,response,Some of the symbols are notes.,True,,,0,Some of the symbols are stars.,True,True,,591,"[1, 0]","[7, 1, 2]","[0, 1]",1,0,3120
"[3, 4, 0]",,,exh-only,0,"[0, 0, 0]",0,7.810616666666666,0,"[0, 0, 0]","[9, 1, 6]",0,Some of the symbols are hearts.,0,undefined,filler,Some of the symbols are spades.,True,,,1,Some of the symbols are triangles.,True,True,,567,"[1, 0]","[4, 6, 1]","[1, 0]",1,0,3728
"[5, 4, 6]",,,exh-only,1,"[0, 0, 0]",1,7.810616666666666,0,"[0, 0, 0]","[9, 5, 3]",0,Only some of the symbols are circles.,1,undefined,filler,Only some of the symbols are squares.,True,,,2,Some of the symbols are triangles.,True,True,,639,"[0, 1]","[7, 2, 5]","[0, 1]",1,1,3152
"[3, 4, 2]",,,exh-only,1,"[0, 0, 0]",0,7.810616666666666,0,"[0, 0, 0]","[5, 6, 0]",0,Some of the symbols are stars.,0,undefined,response,Some of the symbols are spades.,True,,,0,Some of the symbols are squares.,True,True,,600,"[0, 1]","[6, 8, 5]","[1, 0]",1,1,3793
"[12, 3, 9]",,,exh-only,1,"[3, 0, 0]",1,7.810616666666666,1,"[0, 0, 0]","[1, 3, 2]",0,6 + 8 = ?,0,undefined,filler,3 + 9 = ?,False,,,3,There are four clubs.,False,False,,687,"[0, 1]","[14, 6, 8]","[1, 0]",1,0,3176
"[0, 2, 4]",,,exh-only,1,"[0, 0, 0]",1,7.810616666666666,1,"[0, 0, 0]","[7, 3, 2]",0,There are four clubs.,1,undefined,response,There are four diamonds.,True,,,1,There are four circles.,True,True,,679,"[0, 1]","[1, 5, 8]","[0, 1]",1,1,2776
"[1, 6, 9]",,,exh-only,1,"[0, 0, 0]",1,7.810616666666666,0,"[0, 0, 0]","[2, 5, 8]",0,Some of the symbols are notes.,1,undefined,response,Some of the symbols are clubs.,True,,,1,Some of the symbols are ticks.,True,True,,680,"[0, 1]","[8, 1, 0]","[0, 1]",1,1,5945
"[4, 0, 7]",,,exh-only,1,"[0, 0, 0]",0,7.810616666666666,2,"[0, 0, 0]","[0, 4, 8]",0,There is only a triangle.,0,undefined,filler,There is only a heart.,True,,,2,There is a diamond.,True,True,,711,"[0, 1]","[9, 1, 5]","[1, 0]",1,1,2704
"[5, 3, 1]",,,exh-only,1,"[0, 0, 0]",1,7.810616666666666,0,"[0, 0, 0]","[0, 9, 8]",0,Only some of the symbols are clubs.,1,undefined,filler,Only some of the symbols are squares.,True,,,2,Some of the symbols are diamonds.,True,True,,567,"[0, 1]","[1, 0, 9]","[0, 1]",1,1,3256
"[8, 5, 2]",,,exh-only,1,"[0, 0, 0]",0,7.810616666666666,0,"[0, 0, 0]","[5, 1, 2]",0,Only some of the symbols are stars.,0,undefined,response,Only some of the symbols are notes.,True,,,2,Some of the symbols are squares.,True,True,,535,"[0, 1]","[6, 7, 8]","[1, 0]",1,1,2784
"[8, 0, 8]",,,exh-only,1,"[5, 0, 0]",0,7.810616666666666,1,"[8, 0, 0]","[6, 0, 8]",0,9 + 4 = ?,0,undefined,filler,0 + 8 = ?,True,,,3,There are four stars.,True,True,,816,"[0, 1]","[13, 9, 4]","[1, 0]",1,1,3512
"[0, 1, 4]",,,exh-only,0,"[0, 0, 0]",0,7.810616666666666,2,"[0, 0, 0]","[9, 4, 7]",0,There is a circle.,0,undefined,filler,There is a diamond.,True,,,0,There is a triangle.,True,True,,544,"[1, 0]","[7, 4, 5]","[1, 0]",1,0,2920
"[0, 4, 8]",,,exh-only,0,"[0, 0, 0]",0,7.810616666666666,1,"[0, 0, 0]","[7, 0, 9]",0,There are only four clubs.,0,undefined,filler,There are only four diamonds.,True,,,2,There are four circles.,True,True,,567,"[1, 0]","[1, 7, 2]","[1, 0]",1,0,2528
"[7, 8, 0]",,,exh-only,0,"[0, 0, 0]",0,7.810616666666666,0,"[0, 0, 0]","[9, 4, 6]",0,Only some of the symbols are hearts.,0,undefined,filler,Only some of the symbols are circles.,True,,,2,Some of the symbols are triangles.,True,True,,567,"[1, 0]","[4, 6, 9]","[1, 0]",1,0,3152
"[12, 9, 3]",,,exh-only,1,"[8, 0, 0]",0,7.810616666666666,0,"[4, 0, 0]","[5, 8, 3]",0,3 + 1 = ?,1,undefined,response,9 + 3 = ?,False,,,3,Some of the symbols are squares.,True,False,,704,"[0, 1]","[4, 3, 1]","[0, 1]",1,1,2752
"[0, 1, 3]",,,exh-only,1,"[0, 0, 0]",0,7.810616666666666,0,"[0, 0, 0]","[1, 8, 0]",0,Some of the symbols are hearts.,0,undefined,filler,Some of the symbols are diamonds.,True,,,0,Some of the symbols are clubs.,True,True,,1151,"[0, 1]","[4, 1, 8]","[1, 0]",1,1,4816
"[7, 6, 2]",,,exh-only,1,"[0, 0, 0]",1,7.810616666666666,2,"[0, 0, 0]","[1, 9, 6]",0,There is a heart.,1,undefined,response,There is a circle.,True,,,1,There is a club.,True,True,,1134,"[0, 1]","[4, 0, 5]","[0, 1]",1,1,3088
"[4, 9, 3]",,,exh-only,0,"[0, 0, 0]",1,7.810616666666666,0,"[0, 0, 0]","[6, 9, 5]",0,Some of the symbols are circles.,1,undefined,response,Some of the symbols are hearts.,True,,,1,Some of the symbols are stars.,True,True,,808,"[1, 0]","[7, 4, 6]","[0, 1]",1,0,3289
"[6, 1, 5]",,,exh-only,1,"[2, 0, 0]",1,7.810616666666666,1,"[7, 0, 0]","[4, 2, 8]",0,9 + 2 = ?,0,undefined,response,1 + 5 = ?,False,,,3,There are four hearts.,False,False,,904,"[0, 1]","[11, 9, 2]","[1, 0]",1,0,2696
"[1, 5, 0]",,,exh-only,0,"[0, 0, 0]",1,7.810616666666666,2,"[0, 0, 0]","[0, 2, 3]",0,There is only a note.,1,undefined,response,There is only a club.,True,,,2,There is a diamond.,True,True,,1047,"[1, 0]","[8, 3, 1]","[0, 1]",1,0,2864
"[6, 8, 2]",,,exh-only,0,"[0, 0, 0]",1,7.810616666666666,0,"[0, 0, 0]","[6, 3, 7]",0,Some of the symbols are diamonds.,1,undefined,response,Some of the symbols are stars.,True,,,0,Some of the symbols are stars.,True,True,,791,"[1, 0]","[0, 1, 6]","[0, 1]",1,0,3016
"[3, 9, 7]",,,exh-only,1,"[0, 0, 0]",1,7.810616666666666,0,"[0, 0, 0]","[9, 4, 2]",0,Only some of the symbols are spades.,1,undefined,filler,Only some of the symbols are spades.,True,,,2,Some of the symbols are triangles.,True,True,,568,"[0, 1]","[3, 8, 9]","[0, 1]",1,1,3969
"[4, 0, 3]",,,exh-only,1,"[0, 0, 0]",1,7.810616666666666,1,"[0, 0, 0]","[6, 5, 2]",0,There are only four squares.,1,undefined,response,There are only four hearts.,True,,,2,There are four stars.,True,True,,1103,"[0, 1]","[5, 9, 7]","[0, 1]",1,1,2664
"[0, 7, 5]",,,exh-only,0,"[0, 0, 0]",0,7.810616666666666,1,"[0, 0, 0]","[9, 8, 5]",0,There are four circles.,0,undefined,response,There are four diamonds.,True,,,0,There are four triangles.,True,True,,639,"[1, 0]","[7, 8, 0]","[1, 0]",1,0,3024
"[18, 9, 9]",,,exh-only,1,"[1, 0, 0]",1,7.810616666666666,1,"[4, 0, 0]","[5, 6, 8]",0,9 + 1 = ?,0,undefined,filler,9 + 9 = ?,False,,,3,There are four squares.,False,False,,591,"[0, 1]","[10, 9, 1]","[1, 0]",1,0,2440
"[8, 2, 6]",,,exh-only,1,"[5, 0, 0]",0,7.810616666666666,0,"[8, 0, 0]","[3, 6, 1]",0,2 + 1 = ?,1,undefined,filler,2 + 6 = ?,False,,,3,Some of the symbols are spades.,True,False,,1160,"[0, 1]","[3, 2, 1]","[0, 1]",1,1,3457
"[5, 4, 8]",,,exh-only,1,"[0, 0, 0]",0,7.810616666666666,1,"[0, 0, 0]","[9, 7, 4]",0,There are four triangles.,0,undefined,filler,There are four squares.,True,,,0,There are four triangles.,True,True,,872,"[0, 1]","[9, 3, 2]","[1, 0]",1,1,2616
"[9, 2, 6]",,,exh-only,1,"[0, 0, 0]",1,7.810616666666666,2,"[0, 0, 0]","[0, 7, 5]",0,There is a diamond.,1,undefined,filler,There is a triangle.,True,,,1,There is a diamond.,True,True,,991,"[0, 1]","[0, 6, 4]","[0, 1]",1,1,3504
"[4, 2, 2]",,,exh-only,0,"[2, 0, 0]",1,7.810616666666666,0,"[8, 0, 0]","[8, 2, 0]",0,5 + 2 = ?,1,undefined,filler,2 + 2 = ?,True,,,3,Some of the symbols are notes.,True,True,,1271,"[1, 0]","[7, 5, 2]","[0, 1]",1,0,3864
"[4, 2, 7]",,,exh-only,0,"[0, 0, 0]",1,7.810616666666666,1,"[0, 0, 0]","[3, 2, 7]",0,There are four triangles.,1,undefined,response,There are four hearts.,True,,,0,There are four spades.,True,True,,664,"[1, 0]","[9, 2, 8]","[0, 1]",1,0,2745
"[2, 9, 5]",,,exh-only,1,"[0, 0, 0]",1,7.810616666666666,1,"[0, 0, 0]","[8, 7, 1]",0,There are four notes.,1,undefined,filler,There are four ticks.,True,,,0,There are four notes.,True,True,,880,"[0, 1]","[8, 9, 1]","[0, 1]",1,1,2672
"[3, 6, 4]",,,exh-only,1,"[0, 0, 0]",1,7.810616666666666,1,"[0, 0, 0]","[1, 2, 4]",0,There are four circles.,0,undefined,filler,There are four spades.,False,,,1,There are four clubs.,True,False,,727,"[0, 1]","[7, 4, 0]","[1, 0]",1,1,3376
"[1, 4, 6]",,,exh-only,1,"[0, 0, 0]",0,7.810616666666666,2,"[0, 0, 0]","[6, 5, 2]",0,There is a club.,0,undefined,response,There is a club.,True,,,0,There is a star.,True,True,,1088,"[0, 1]","[1, 6, 4]","[1, 0]",1,1,4537
"[5, 2, 3]",,,exh-only,1,"[7, 0, 0]",1,7.810616666666666,1,"[7, 0, 0]","[3, 6, 2]",0,0 + 8 = ?,0,undefined,response,2 + 3 = ?,False,,,3,There are four spades.,False,False,,840,"[0, 1]","[8, 0, 8]","[1, 0]",1,0,2984
"[11, 4, 7]",,,exh-only,0,"[9, 0, 0]",0,7.810616666666666,2,"[0, 0, 0]","[4, 1, 5]",0,9 + 5 = ?,1,undefined,response,4 + 7 = ?,False,,,3,There is a heart.,False,False,,775,"[1, 0]","[14, 9, 5]","[0, 1]",1,1,3312
"[9, 2, 8]",,,exh-only,1,"[0, 0, 0]",0,7.810616666666666,2,"[0, 0, 0]","[1, 9, 6]",0,There is a diamond.,0,undefined,response,There is a triangle.,True,,,0,There is a club.,True,True,,815,"[0, 1]","[0, 3, 9]","[1, 0]",1,1,3616
"[5, 9, 1]",,,exh-only,0,"[0, 0, 0]",0,7.810616666666666,0,"[0, 0, 0]","[0, 1, 4]",0,Some of the symbols are triangles.,0,undefined,filler,Some of the symbols are squares.,True,,,1,Some of the symbols are diamonds.,True,True,,784,"[1, 0]","[9, 0, 5]","[1, 0]",1,0,3433
"[12, 9, 3]",,,exh-only,0,"[0, 0, 0]",0,7.810616666666666,0,"[2, 0, 0]","[1, 8, 0]",0,7 + 6 = ?,0,undefined,filler,9 + 3 = ?,False,,,3,Some of the symbols are clubs.,False,True,,783,"[1, 0]","[13, 7, 6]","[1, 0]",1,1,2960
"[7, 5, 1]",,,exh-only,0,"[0, 0, 0]",0,7.810616666666666,1,"[0, 0, 0]","[3, 7, 6]",0,There are four ticks.,0,undefined,response,There are four circles.,True,,,0,There are four spades.,True,True,,1175,"[1, 0]","[2, 7, 5]","[1, 0]",1,0,2992
"[3, 7, 2]",,,exh-only,0,"[0, 0, 0]",0,7.810616666666666,0,"[0, 0, 0]","[0, 6, 3]",0,Some of the symbols are triangles.,0,undefined,filler,Some of the symbols are spades.,True,,,1,Some of the symbols are diamonds.,True,True,,919,"[1, 0]","[9, 5, 2]","[1, 0]",1,0,3273
"[6, 0, 7]",,,exh-only,1,"[0, 0, 0]",1,7.810616666666666,2,"[0, 0, 0]","[2, 6, 8]",0,There is only a triangle.,1,undefined,response,There is only a star.,True,,,2,There is a tick.,True,True,,991,"[0, 1]","[9, 5, 4]","[0, 1]",1,1,2864
"[9, 5, 1]",,,exh-only,1,"[0, 0, 0]",0,7.810616666666666,1,"[0, 0, 0]","[4, 6, 7]",0,There are four circles.,0,undefined,response,There are four triangles.,True,,,1,There are four hearts.,True,True,,791,"[0, 1]","[7, 2, 6]","[1, 0]",1,1,2944
"[9, 0, 5]",,,exh-only,1,"[0, 0, 0]",1,7.810616666666666,2,"[0, 0, 0]","[6, 4, 7]",0,There is a note.,1,undefined,response,There is a triangle.,True,,,1,There is a star.,True,True,,991,"[0, 1]","[8, 6, 1]","[0, 1]",1,1,3136
"[15, 8, 7]",,,exh-only,0,"[1, 0, 0]",0,7.810616666666666,0,"[2, 0, 0]","[5, 0, 1]",0,6 + 5 = ?,1,undefined,filler,8 + 7 = ?,False,,,3,Some of the symbols are squares.,False,False,,1559,"[1, 0]","[11, 6, 5]","[0, 1]",1,1,3696
"[15, 9, 6]",,,exh-only,1,"[0, 0, 0]",0,7.810616666666666,2,"[5, 0, 0]","[8, 9, 6]",0,9 + 4 = ?,0,undefined,filler,9 + 6 = ?,True,,,3,There is a note.,True,True,,863,"[0, 1]","[13, 9, 4]","[1, 0]",1,1,2936
"[14, 5, 9]",,,exh-only,0,"[0, 0, 0]",0,7.810616666666666,2,"[6, 0, 0]","[4, 3, 7]",0,1 + 5 = ?,1,undefined,filler,5 + 9 = ?,False,,,3,There is a heart.,False,False,,824,"[1, 0]","[6, 1, 5]","[0, 1]",1,1,2977
"[3, 8, 9]",,,exh-only,0,"[0, 0, 0]",0,7.810616666666666,0,"[0, 0, 0]","[6, 4, 1]",0,Some of the symbols are squares.,0,undefined,filler,Some of the symbols are spades.,True,,,0,Some of the symbols are stars.,True,True,,960,"[1, 0]","[5, 2, 6]","[1, 0]",1,0,3104
"[6, 2, 8]",,,exh-only,0,"[0, 0, 0]",0,7.810616666666666,1,"[0, 0, 0]","[5, 8, 0]",0,There are only four clubs.,0,undefined,response,There are only four stars.,True,,,2,There are four squares.,True,True,,887,"[1, 0]","[1, 5, 6]","[1, 0]",1,0,2776
"[0, 9, 7]",,,exh-only,1,"[0, 0, 0]",1,7.810616666666666,1,"[0, 0, 0]","[2, 5, 4]",0,There are four ticks.,1,undefined,filler,There are four diamonds.,True,,,0,There are four ticks.,True,True,,991,"[0, 1]","[2, 8, 0]","[0, 1]",1,1,3008
"[4, 8, 0]",,,exh-only,1,"[0, 0, 0]",1,7.810616666666666,1,"[0, 0, 0]","[8, 7, 3]",0,There are four hearts.,1,undefined,filler,There are four hearts.,True,,,0,There are four notes.,True,True,,968,"[0, 1]","[4, 2, 7]","[0, 1]",1,1,3160
"[4, 4, 0]",,,exh-only,1,"[8, 0, 0]",1,7.810616666666666,2,"[1, 0, 0]","[0, 5, 4]",0,2 + 8 = ?,1,undefined,filler,4 + 0 = ?,False,,,3,There is a diamond.,False,True,,1287,"[0, 1]","[10, 2, 8]","[0, 1]",1,0,4096
"[6, 3, 3]",,,exh-only,1,"[10, 0, 0]",0,7.810616666666666,1,"[0, 0, 0]","[3, 5, 7]",0,8 + 1 = ?,1,undefined,response,3 + 3 = ?,False,,,3,There are four spades.,True,False,,831,"[0, 1]","[9, 8, 1]","[0, 1]",1,1,3376
"[3, 6, 5]",,,exh-only,0,"[0, 0, 0]",0,7.810616666666666,0,"[0, 0, 0]","[7, 2, 6]",0,Some of the symbols are hearts.,0,undefined,response,Some of the symbols are spades.,True,,,0,Some of the symbols are circles.,True,True,,744,"[1, 0]","[4, 7, 0]","[1, 0]",1,0,5161
"[6, 3, 2]",,,exh-only,0,"[0, 0, 0]",1,7.810616666666666,2,"[0, 0, 0]","[0, 1, 6]",0,There is only a spade.,1,undefined,filler,There is only a star.,True,,,2,There is a diamond.,True,True,,991,"[1, 0]","[3, 2, 0]","[0, 1]",1,0,2712
,1,,,,,,12.441716666666666,,,,1,,,undefined,,,,"[0, 'Linda']",Linda,,,,,bot_check,,,,,,,
"[2, 7, 6]",,,exh-only,1,"[0, 0, 0]",1,12.441716666666666,0,"[0, 0, 0]","[1, 9, 0]",1,Some of the symbols are notes.,1,undefined,filler,Some of the symbols are ticks.,True,,,0,Some of the symbols are clubs.,True,True,,3272,"[0, 1]","[8, 2, 5]","[0, 1]",1,1,9364
"[8, 6, 3]",,,exh-only,1,"[0, 0, 0]",1,12.441716666666666,2,"[0, 0, 0]","[5, 9, 4]",1,There is a tick.,1,undefined,filler,There is a note.,True,,,1,There is a square.,True,True,,2716,"[0, 1]","[2, 4, 0]","[0, 1]",1,1,13169
"[1, 2, 9]",,,exh-only,1,"[0, 0, 0]",0,12.441716666666666,0,"[0, 0, 0]","[4, 7, 6]",1,Some of the symbols are hearts.,0,undefined,response,Some of the symbols are clubs.,True,,,0,Some of the symbols are hearts.,True,True,,2898,"[0, 1]","[4, 2, 0]","[1, 0]",0,1,7830
"[7, 0, 1]",,,exh-only,0,"[0, 0, 0]",1,12.441716666666666,2,"[0, 0, 0]","[6, 7, 9]",1,There is a note.,1,undefined,response,There is a circle.,True,,,1,There is a star.,True,True,,2620,"[1, 0]","[8, 5, 3]","[0, 1]",0,0,8229
"[6, 5, 1]",,,exh-only,1,"[0, 0, 0]",1,12.441716666666666,0,"[0, 0, 0]","[1, 4, 3]",1,Some of the symbols are squares.,1,undefined,response,Some of the symbols are stars.,True,,,1,Some of the symbols are clubs.,True,True,,2009,"[0, 1]","[5, 9, 6]","[0, 1]",0,1,6132
"[6, 8, 0]",,,exh-only,0,"[0, 0, 0]",0,12.441716666666666,1,"[0, 0, 0]","[8, 0, 4]",1,There are four squares.,0,undefined,filler,There are four stars.,True,,,0,There are four notes.,True,True,,1715,"[1, 0]","[5, 9, 8]","[1, 0]",1,0,5430
"[5, 2, 3]",,,exh-only,1,"[9, 0, 0]",1,12.441716666666666,0,"[0, 0, 0]","[0, 9, 1]",1,0 + 8 = ?,0,undefined,response,2 + 3 = ?,False,,,3,Some of the symbols are diamonds.,False,False,,1724,"[0, 1]","[8, 0, 8]","[1, 0]",0,0,4850
"[9, 6, 7]",,,exh-only,0,"[0, 0, 0]",0,12.441716666666666,0,"[0, 0, 0]","[3, 2, 1]",1,Only some of the symbols are squares.,0,undefined,response,Only some of the symbols are triangles.,True,,,2,Some of the symbols are spades.,True,True,,6751,"[1, 0]","[5, 9, 6]","[1, 0]",1,0,12187
"[9, 2, 1]",,,exh-only,1,"[0, 0, 0]",1,12.441716666666666,1,"[0, 0, 0]","[2, 0, 7]",1,There are only four triangles.,1,undefined,filler,There are only four triangles.,True,,,2,There are four ticks.,True,True,,3235,"[0, 1]","[9, 3, 6]","[0, 1]",1,1,7514
"[4, 7, 5]",,,exh-only,1,"[0, 0, 0]",1,12.441716666666666,0,"[0, 0, 0]","[6, 5, 8]",1,Only some of the symbols are diamonds.,1,undefined,response,Only some of the symbols are hearts.,True,,,2,Some of the symbols are stars.,True,True,,2957,"[0, 1]","[0, 1, 3]","[0, 1]",1,1,7551
"[0, 0, 0]",,,exh-only,0,"[3, 0, 0]",0,12.441716666666666,2,"[3, 0, 0]","[3, 6, 9]",1,3 + 3 = ?,1,undefined,filler,0 + 0 = ?,False,,,3,There is a spade.,False,False,,2020,"[1, 0]","[6, 3, 3]","[0, 1]",1,1,5093
"[0, 5, 9]",,,exh-only,0,"[0, 0, 0]",1,12.441716666666666,1,"[0, 0, 0]","[9, 3, 7]",1,There are only four circles.,1,undefined,response,There are only four diamonds.,True,,,2,There are four triangles.,True,True,,2435,"[1, 0]","[7, 9, 2]","[0, 1]",0,0,6301
"[5, 6, 9]",,,exh-only,1,"[0, 0, 0]",1,12.441716666666666,0,"[0, 0, 0]","[8, 5, 3]",1,Some of the symbols are diamonds.,1,undefined,filler,Some of the symbols are squares.,True,,,0,Some of the symbols are notes.,True,True,,1896,"[0, 1]","[0, 9, 1]","[0, 1]",1,1,8153
"[13, 6, 7]",,,exh-only,1,"[4, 0, 0]",1,12.441716666666666,2,"[7, 0, 0]","[1, 9, 5]",1,3 + 0 = ?,0,undefined,response,6 + 7 = ?,False,,,3,There is a club.,False,False,,2321,"[0, 1]","[3, 3, 0]","[1, 0]",0,0,6519
"[8, 7, 1]",,,exh-only,0,"[0, 0, 0]",0,12.441716666666666,1,"[3, 0, 0]","[1, 6, 9]",1,1 + 5 = ?,1,undefined,filler,7 + 1 = ?,False,,,3,There are four clubs.,False,False,,1702,"[1, 0]","[6, 1, 5]","[0, 1]",1,1,4303
"[10, 2, 8]",,,exh-only,1,"[2, 0, 0]",1,12.441716666666666,1,"[3, 0, 0]","[4, 6, 8]",1,9 + 4 = ?,1,undefined,response,2 + 8 = ?,False,,,3,There are four hearts.,False,True,,1475,"[0, 1]","[13, 9, 4]","[0, 1]",1,0,3961
"[8, 2, 4]",,,exh-only,1,"[0, 0, 0]",1,12.441716666666666,0,"[0, 0, 0]","[7, 3, 6]",1,Some of the symbols are notes.,1,undefined,filler,Some of the symbols are notes.,True,,,1,Some of the symbols are circles.,True,True,,2142,"[0, 1]","[8, 9, 6]","[0, 1]",1,1,6157
"[10, 8, 2]",,,exh-only,1,"[8, 0, 0]",1,12.441716666666666,2,"[8, 0, 0]","[4, 8, 6]",1,6 + 4 = ?,0,undefined,response,8 + 2 = ?,False,,,3,There is a heart.,False,False,,1385,"[0, 1]","[10, 6, 4]","[1, 0]",0,0,3719
"[7, 0, 7]",,,exh-only,0,"[7, 0, 0]",0,12.441716666666666,1,"[6, 0, 0]","[7, 5, 8]",1,4 + 1 = ?,0,undefined,filler,0 + 7 = ?,False,,,3,There are four circles.,False,True,,1265,"[1, 0]","[5, 4, 1]","[1, 0]",1,1,3565
"[18, 9, 9]",,,exh-only,0,"[4, 0, 0]",1,12.441716666666666,0,"[3, 0, 0]","[4, 9, 1]",1,8 + 6 = ?,0,undefined,response,9 + 9 = ?,False,,,3,Some of the symbols are hearts.,True,False,,6123,"[1, 0]","[14, 8, 6]","[1, 0]",0,0,9072
"[8, 6, 2]",,,exh-only,0,"[2, 0, 0]",1,12.441716666666666,0,"[0, 0, 0]","[3, 7, 4]",1,2 + 0 = ?,1,undefined,filler,6 + 2 = ?,True,,,3,Some of the symbols are spades.,True,True,,2267,"[1, 0]","[2, 2, 0]","[0, 1]",1,0,8158
"[9, 1, 5]",,,exh-only,0,"[0, 0, 0]",0,12.441716666666666,1,"[0, 0, 0]","[0, 8, 6]",1,There are four notes.,0,undefined,response,There are four triangles.,True,,,0,There are four diamonds.,True,True,,2400,"[1, 0]","[8, 9, 3]","[1, 0]",0,0,5376
"[8, 6, 4]",,,exh-only,0,"[0, 0, 0]",0,12.441716666666666,0,"[0, 0, 0]","[8, 2, 3]",1,Some of the symbols are notes.,0,undefined,response,Some of the symbols are notes.,True,,,0,Some of the symbols are notes.,True,True,,1995,"[1, 0]","[8, 9, 7]","[1, 0]",0,0,6399
"[4, 3, 7]",,,exh-only,1,"[0, 0, 0]",1,12.441716666666666,1,"[0, 0, 0]","[6, 4, 5]",1,There are four spades.,1,undefined,response,There are four hearts.,True,,,0,There are four stars.,True,True,,1201,"[0, 1]","[3, 1, 7]","[0, 1]",0,1,4488
"[8, 1, 7]",,,exh-only,1,"[0, 0, 0]",0,12.441716666666666,1,"[0, 0, 0]","[1, 6, 2]",1,There are four triangles.,0,undefined,filler,There are four notes.,True,,,1,There are four clubs.,True,True,,1622,"[0, 1]","[9, 0, 2]","[1, 0]",1,1,4444
"[5, 0, 3]",,,exh-only,1,"[0, 0, 0]",0,12.441716666666666,1,"[0, 0, 0]","[3, 0, 4]",1,There are only four spades.,0,undefined,response,There are only four squares.,True,,,2,There are four spades.,True,True,,1892,"[0, 1]","[3, 9, 8]","[1, 0]",0,1,6469
"[7, 1, 0]",,,exh-only,0,"[0, 0, 0]",1,12.441716666666666,0,"[0, 0, 0]","[0, 6, 8]",1,Only some of the symbols are stars.,1,undefined,response,Only some of the symbols are circles.,True,,,2,Some of the symbols are diamonds.,True,True,,5286,"[1, 0]","[6, 2, 0]","[0, 1]",0,0,9617
"[1, 8, 4]",,,exh-only,0,"[0, 0, 0]",0,12.441716666666666,0,"[0, 0, 0]","[4, 2, 8]",1,Only some of the symbols are diamonds.,0,undefined,response,Only some of the symbols are clubs.,True,,,2,Some of the symbols are hearts.,True,True,,2520,"[1, 0]","[0, 6, 5]","[1, 0]",0,0,7163
"[9, 0, 4]",,,exh-only,0,"[0, 0, 0]",0,12.441716666666666,0,"[0, 0, 0]","[8, 4, 5]",1,Some of the symbols are circles.,0,undefined,response,Some of the symbols are triangles.,True,,,0,Some of the symbols are notes.,True,True,,3020,"[1, 0]","[7, 9, 2]","[1, 0]",0,0,7988
"[4, 2, 5]",,,exh-only,0,"[0, 0, 0]",0,12.441716666666666,1,"[0, 0, 0]","[7, 2, 5]",1,There are four spades.,0,undefined,filler,There are four hearts.,True,,,0,There are four circles.,True,True,,1475,"[1, 0]","[3, 9, 0]","[1, 0]",1,0,6590
"[2, 5, 0]",,,exh-only,0,"[0, 0, 0]",1,12.441716666666666,2,"[0, 0, 0]","[9, 7, 8]",1,There is a circle.,1,undefined,filler,There is a tick.,True,,,0,There is a triangle.,True,True,,1320,"[1, 0]","[7, 4, 2]","[0, 1]",1,0,4971
"[1, 4, 2]",,,exh-only,0,"[0, 0, 0]",1,12.441716666666666,0,"[0, 0, 0]","[6, 4, 5]",1,Some of the symbols are notes.,1,undefined,filler,Some of the symbols are clubs.,True,,,1,Some of the symbols are stars.,True,True,,2003,"[1, 0]","[8, 6, 1]","[0, 1]",1,0,8419
"[4, 3, 6]",,,exh-only,1,"[0, 0, 0]",0,12.441716666666666,0,"[0, 0, 0]","[6, 3, 5]",1,Some of the symbols are triangles.,0,undefined,filler,Some of the symbols are hearts.,True,,,1,Some of the symbols are stars.,True,True,,3000,"[0, 1]","[9, 0, 5]","[1, 0]",1,1,8260
"[3, 4, 8]",,,exh-only,0,"[0, 0, 0]",1,12.441716666666666,2,"[0, 0, 0]","[0, 1, 2]",1,There is a tick.,1,undefined,filler,There is a spade.,True,,,1,There is a diamond.,True,True,,1539,"[1, 0]","[2, 8, 3]","[0, 1]",1,0,7229
"[8, 5, 3]",,,exh-only,1,"[7, 0, 0]",1,12.441716666666666,2,"[2, 0, 0]","[8, 6, 4]",1,0 + 1 = ?,1,undefined,filler,5 + 3 = ?,False,,,3,There is a note.,False,True,,2019,"[0, 1]","[1, 0, 1]","[0, 1]",1,0,5872
"[1, 2, 0]",,,exh-only,0,"[0, 0, 0]",0,12.441716666666666,2,"[0, 0, 0]","[2, 0, 6]",1,There is a spade.,0,undefined,filler,There is a club.,True,,,0,There is a tick.,True,True,,1665,"[1, 0]","[3, 8, 7]","[1, 0]",1,0,4976
"[7, 4, 2]",,,exh-only,1,"[0, 0, 0]",1,12.441716666666666,2,"[0, 0, 0]","[2, 6, 9]",1,There is a triangle.,1,undefined,response,There is a circle.,True,,,0,There is a tick.,True,True,,1199,"[0, 1]","[9, 6, 1]","[0, 1]",0,1,4326
"[9, 5, 4]",,,exh-only,0,"[4, 0, 0]",1,12.441716666666666,0,"[1, 0, 0]","[5, 6, 8]",1,3 + 1 = ?,1,undefined,filler,5 + 4 = ?,True,,,3,Some of the symbols are squares.,True,True,,3565,"[1, 0]","[4, 3, 1]","[0, 1]",1,0,6800
"[1, 8, 6]",,,exh-only,1,"[0, 0, 0]",0,12.441716666666666,2,"[0, 0, 0]","[7, 2, 0]",1,There is only a diamond.,0,undefined,response,There is only a club.,True,,,2,There is a circle.,True,True,,1988,"[0, 1]","[0, 5, 4]","[1, 0]",0,1,6230
"[14, 8, 6]",,,exh-only,0,"[9, 0, 0]",1,12.441716666666666,2,"[4, 0, 0]","[3, 5, 9]",1,2 + 2 = ?,1,undefined,response,8 + 6 = ?,True,,,3,There is a spade.,True,True,,1655,"[1, 0]","[4, 2, 2]","[0, 1]",0,0,4581
"[0, 3, 4]",,,exh-only,0,"[0, 0, 0]",0,12.441716666666666,0,"[0, 0, 0]","[7, 5, 4]",1,Some of the symbols are clubs.,0,undefined,response,Some of the symbols are diamonds.,True,,,1,Some of the symbols are circles.,True,True,,3578,"[1, 0]","[1, 0, 6]","[1, 0]",0,0,8809
"[14, 7, 7]",,,exh-only,1,"[3, 0, 0]",0,12.441716666666666,2,"[7, 0, 0]","[7, 6, 3]",1,5 + 7 = ?,1,undefined,filler,7 + 7 = ?,False,,,3,There is a circle.,True,False,,2751,"[0, 1]","[12, 5, 7]","[0, 1]",1,1,5280
"[0, 8, 5]",,,exh-only,0,"[0, 0, 0]",1,12.441716666666666,2,"[0, 0, 0]","[8, 9, 5]",1,There is a circle.,1,undefined,response,There is a diamond.,True,,,1,There is a note.,True,True,,1331,"[1, 0]","[7, 0, 1]","[0, 1]",0,0,4964
"[9, 2, 0]",,,exh-only,1,"[0, 0, 0]",1,12.441716666666666,0,"[0, 0, 0]","[9, 2, 7]",1,Some of the symbols are ticks.,1,undefined,response,Some of the symbols are triangles.,True,,,1,Some of the symbols are triangles.,True,True,,5492,"[0, 1]","[2, 1, 9]","[0, 1]",0,1,11136
"[1, 7, 9]",,,exh-only,0,"[0, 0, 0]",0,12.441716666666666,0,"[0, 0, 0]","[6, 3, 1]",1,Some of the symbols are triangles.,0,undefined,filler,Some of the symbols are clubs.,True,,,1,Some of the symbols are stars.,True,True,,4303,"[1, 0]","[9, 5, 3]","[1, 0]",1,0,11563
"[0, 2, 9]",,,exh-only,1,"[0, 0, 0]",0,12.441716666666666,1,"[0, 0, 0]","[2, 9, 6]",1,There are only four spades.,0,undefined,filler,There are only four diamonds.,True,,,2,There are four ticks.,True,True,,1784,"[0, 1]","[3, 9, 7]","[1, 0]",1,1,5302
"[4, 2, 1]",,,exh-only,1,"[0, 0, 0]",0,12.441716666666666,2,"[0, 0, 0]","[3, 4, 1]",1,There is a triangle.,0,undefined,response,There is a heart.,True,,,1,There is a spade.,True,True,,2347,"[0, 1]","[9, 6, 3]","[1, 0]",0,1,7043
"[8, 2, 7]",,,exh-only,1,"[0, 0, 0]",0,12.441716666666666,2,"[0, 0, 0]","[1, 6, 3]",1,There is a tick.,0,undefined,filler,There is a note.,True,,,1,There is a club.,True,True,,2374,"[0, 1]","[2, 1, 3]","[1, 0]",1,1,5699
"[9, 7, 6]",,,exh-only,0,"[0, 0, 0]",1,12.441716666666666,1,"[0, 0, 0]","[8, 4, 3]",1,There are four circles.,1,undefined,filler,There are four triangles.,True,,,0,There are four notes.,True,True,,1265,"[1, 0]","[7, 8, 2]","[0, 1]",1,0,3605
"[13, 8, 5]",,,exh-only,0,"[6, 0, 0]",1,12.441716666666666,1,"[6, 0, 0]","[0, 7, 4]",1,1 + 0 = ?,1,undefined,response,8 + 5 = ?,True,,,3,There are four diamonds.,True,True,,1198,"[1, 0]","[1, 1, 0]","[0, 1]",0,0,3783
"[2, 5, 7]",,,exh-only,0,"[0, 0, 0]",1,12.441716666666666,1,"[0, 0, 0]","[8, 4, 6]",1,There are four squares.,1,undefined,response,There are four ticks.,True,,,0,There are four notes.,True,True,,984,"[1, 0]","[5, 0, 8]","[0, 1]",0,0,3216
"[13, 5, 8]",,,exh-only,0,"[6, 0, 0]",0,12.441716666666666,1,"[3, 0, 0]","[9, 7, 4]",1,3 + 1 = ?,0,undefined,response,5 + 8 = ?,False,,,3,There are four triangles.,False,True,,1061,"[1, 0]","[4, 3, 1]","[1, 0]",0,1,4067
"[12, 6, 6]",,,exh-only,1,"[4, 0, 0]",1,12.441716666666666,0,"[5, 0, 0]","[6, 2, 8]",1,2 + 5 = ?,0,undefined,response,6 + 6 = ?,False,,,3,Some of the symbols are stars.,False,False,,2177,"[0, 1]","[7, 2, 5]","[1, 0]",1,0,5002
"[7, 8, 4]",,,exh-only,1,"[0, 0, 0]",0,12.441716666666666,0,"[0, 0, 0]","[9, 1, 5]",1,Only some of the symbols are clubs.,0,undefined,filler,Only some of the symbols are circles.,True,,,2,Some of the symbols are triangles.,True,True,,3040,"[0, 1]","[1, 4, 6]","[1, 0]",1,1,8773
"[8, 3, 5]",,,exh-only,0,"[0, 0, 0]",0,12.441716666666666,2,"[0, 0, 0]","[1, 6, 9]",1,There is a diamond.,0,undefined,filler,There is a note.,True,,,0,There is a club.,True,True,,1615,"[1, 0]","[0, 5, 4]","[1, 0]",1,0,7577
"[8, 6, 9]",,,exh-only,1,"[0, 0, 0]",0,12.441716666666666,0,"[0, 0, 0]","[5, 9, 7]",1,Only some of the symbols are spades.,0,undefined,filler,Only some of the symbols are notes.,True,,,2,Some of the symbols are squares.,True,True,,2412,"[0, 1]","[3, 8, 4]","[1, 0]",1,1,9598
"[17, 8, 9]",,,exh-only,0,"[5, 0, 0]",0,12.441716666666666,1,"[5, 0, 0]","[0, 2, 8]",1,0 + 2 = ?,1,undefined,response,8 + 9 = ?,False,,,3,There are four diamonds.,False,False,,2315,"[1, 0]","[2, 0, 2]","[0, 1]",0,1,5941
"[7, 8, 2]",,,exh-only,1,"[0, 0, 0]",0,12.441716666666666,2,"[0, 0, 0]","[7, 0, 5]",1,There is a star.,0,undefined,response,There is a circle.,True,,,0,There is a circle.,True,True,,1089,"[0, 1]","[6, 5, 8]","[1, 0]",0,1,4588
"[5, 2, 3]",,,exh-only,1,"[0, 0, 0]",0,12.441716666666666,0,"[9, 0, 0]","[7, 6, 0]",1,4 + 2 = ?,1,undefined,filler,2 + 3 = ?,False,,,3,Some of the symbols are circles.,True,False,,1600,"[0, 1]","[6, 4, 2]","[0, 1]",1,1,4571
"[3, 7, 5]",,,exh-only,1,"[0, 0, 0]",1,12.441716666666666,1,"[0, 0, 0]","[0, 3, 7]",1,There are only four spades.,1,undefined,response,There are only four spades.,True,,,2,There are four diamonds.,True,True,,1501,"[0, 1]","[3, 6, 1]","[0, 1]",0,1,6270
"[0, 8, 9]",,,exh-only,1,"[0, 0, 0]",1,12.441716666666666,1,"[0, 0, 0]","[4, 8, 0]",1,There are four spades.,1,undefined,response,There are four diamonds.,True,,,0,There are four hearts.,True,True,,1342,"[0, 1]","[3, 2, 4]","[0, 1]",0,1,4224
"[4, 7, 8]",,,exh-only,0,"[0, 0, 0]",1,12.441716666666666,2,"[0, 0, 0]","[2, 6, 3]",1,There is only a star.,1,undefined,filler,There is only a heart.,True,,,2,There is a tick.,True,True,,1622,"[1, 0]","[6, 7, 8]","[0, 1]",1,0,4508
"[7, 6, 9]",,,exh-only,1,"[0, 0, 0]",0,12.441716666666666,1,"[0, 0, 0]","[3, 6, 0]",1,There are four hearts.,0,undefined,filler,There are four circles.,True,,,1,There are four spades.,True,True,,1235,"[0, 1]","[4, 6, 7]","[1, 0]",1,1,4872
"[3, 6, 7]",,,exh-only,0,"[0, 0, 0]",1,12.441716666666666,1,"[0, 0, 0]","[0, 6, 5]",1,There are four stars.,1,undefined,response,There are four spades.,True,,,1,There are four diamonds.,True,True,,1601,"[1, 0]","[6, 3, 1]","[0, 1]",0,0,4084
"[9, 4, 7]",,,exh-only,1,"[0, 0, 0]",1,12.441716666666666,2,"[0, 0, 0]","[9, 4, 2]",1,There is a square.,1,undefined,response,There is a triangle.,True,,,0,There is a triangle.,True,True,,1243,"[0, 1]","[5, 7, 1]","[0, 1]",0,1,6586
"[3, 3, 0]",,,exh-only,0,"[6, 0, 0]",1,12.441716666666666,0,"[6, 0, 0]","[3, 8, 6]",1,7 + 3 = ?,1,undefined,filler,3 + 0 = ?,True,,,3,Some of the symbols are spades.,True,True,,2405,"[1, 0]","[10, 7, 3]","[0, 1]",1,0,5046
"[3, 1, 9]",,,exh-only,1,"[0, 0, 0]",1,12.441716666666666,0,"[0, 0, 0]","[9, 4, 7]",1,Some of the symbols are squares.,1,undefined,filler,Some of the symbols are spades.,True,,,0,Some of the symbols are triangles.,True,True,,1867,"[0, 1]","[5, 1, 4]","[0, 1]",1,1,5544
"[8, 4, 2]",,,exh-only,1,"[0, 0, 0]",0,12.441716666666666,2,"[0, 0, 0]","[9, 7, 3]",1,There is only a triangle.,0,undefined,response,There is only a note.,True,,,2,There is a triangle.,True,True,,1812,"[0, 1]","[9, 7, 2]","[1, 0]",0,1,4224
"[13, 8, 5]",,,exh-only,1,"[2, 0, 0]",1,12.441716666666666,2,"[4, 0, 0]","[1, 9, 6]",1,3 + 8 = ?,1,undefined,response,8 + 5 = ?,False,,,3,There is a club.,False,True,,1346,"[0, 1]","[11, 3, 8]","[0, 1]",0,0,4903
"[9, 8, 1]",,,exh-only,0,"[0, 0, 0]",0,12.441716666666666,2,"[0, 0, 0]","[3, 4, 2]",1,There is a star.,0,undefined,filler,There is a triangle.,True,,,1,There is a spade.,True,True,,1794,"[1, 0]","[6, 9, 1]","[1, 0]",1,0,5028
"[0, 1, 7]",,,exh-only,0,"[0, 0, 0]",0,12.441716666666666,2,"[0, 0, 0]","[8, 2, 1]",1,There is only a star.,0,undefined,response,There is only a diamond.,False,,,2,There is a note.,False,True,,2478,"[1, 0]","[6, 3, 7]","[1, 0]",0,1,6012
"[5, 1, 4]",,,exh-only,1,"[3, 0, 0]",1,12.441716666666666,0,"[9, 0, 0]","[1, 7, 2]",1,5 + 5 = ?,1,undefined,response,1 + 4 = ?,False,,,3,Some of the symbols are clubs.,False,True,,2383,"[0, 1]","[10, 5, 5]","[0, 1]",0,0,4957
"[4, 2, 6]",,,exh-only,1,"[0, 0, 0]",0,12.441716666666666,0,"[0, 0, 0]","[8, 4, 1]",1,Only some of the symbols are clubs.,0,undefined,filler,Only some of the symbols are hearts.,True,,,2,Some of the symbols are notes.,True,True,,2072,"[0, 1]","[1, 4, 5]","[1, 0]",1,1,7327
"[1, 4, 9]",,,exh-only,0,"[0, 0, 0]",1,12.441716666666666,1,"[0, 0, 0]","[7, 2, 8]",1,There are four triangles.,1,undefined,response,There are four clubs.,True,,,1,There are four circles.,True,True,,1950,"[1, 0]","[9, 3, 5]","[0, 1]",0,0,4580
"[0, 2, 8]",,,exh-only,0,"[0, 0, 0]",0,12.441716666666666,2,"[0, 0, 0]","[0, 8, 2]",1,There is a note.,0,undefined,response,There is a diamond.,True,,,1,There is a diamond.,True,True,,1734,"[1, 0]","[8, 0, 6]","[1, 0]",0,0,6059
"[9, 5, 4]",,,exh-only,0,"[0, 0, 0]",1,12.441716666666666,1,"[0, 0, 0]","[4, 9, 7]",1,There are only four notes.,1,undefined,response,There are only four triangles.,True,,,2,There are four hearts.,True,True,,1910,"[1, 0]","[8, 5, 3]","[0, 1]",0,0,5660
"[15, 6, 9]",,,exh-only,1,"[4, 0, 0]",1,12.441716666666666,2,"[1, 0, 0]","[6, 2, 4]",1,0 + 3 = ?,1,undefined,filler,6 + 9 = ?,False,,,3,There is a star.,False,True,,3811,"[0, 1]","[3, 0, 3]","[0, 1]",1,0,8752
"[6, 0, 7]",,,exh-only,1,"[0, 0, 0]",0,12.441716666666666,1,"[0, 0, 0]","[0, 6, 2]",1,There are four stars.,0,undefined,response,There are four stars.,True,,,1,There are four diamonds.,True,True,,1790,"[0, 1]","[6, 9, 3]","[1, 0]",0,1,8044
"[0, 2, 6]",,,exh-only,0,"[0, 0, 0]",0,12.441716666666666,1,"[0, 0, 0]","[3, 9, 0]",1,There are four ticks.,0,undefined,filler,There are four diamonds.,True,,,1,There are four spades.,True,True,,1293,"[1, 0]","[2, 9, 3]","[1, 0]",1,0,3689
"[1, 8, 9]",,,exh-only,0,"[0, 0, 0]",0,12.441716666666666,0,"[0, 0, 0]","[5, 1, 7]",1,Some of the symbols are diamonds.,0,undefined,response,Some of the symbols are clubs.,True,,,0,Some of the symbols are squares.,True,True,,1475,"[1, 0]","[0, 4, 5]","[1, 0]",0,0,6319
"[11, 6, 5]",,,exh-only,0,"[1, 0, 0]",1,12.441716666666666,1,"[0, 0, 0]","[0, 9, 2]",1,5 + 5 = ?,0,undefined,filler,6 + 5 = ?,False,,,3,There are four diamonds.,True,False,,2076,"[1, 0]","[10, 5, 5]","[1, 0]",1,0,4768
"[0, 4, 1]",,,exh-only,0,"[0, 0, 0]",1,12.441716666666666,2,"[0, 0, 0]","[7, 1, 6]",1,There is a square.,1,undefined,response,There is a diamond.,True,,,0,There is a circle.,True,True,,1400,"[1, 0]","[5, 4, 6]","[0, 1]",0,0,4823
"[8, 9, 2]",,,exh-only,1,"[0, 0, 0]",0,12.441716666666666,2,"[0, 0, 0]","[0, 3, 6]",1,There is only a square.,0,undefined,filler,There is only a note.,True,,,2,There is a diamond.,True,True,,2387,"[0, 1]","[5, 3, 2]","[1, 0]",1,1,5689
"[8, 1, 0]",,,exh-only,1,"[0, 0, 0]",1,12.441716666666666,1,"[0, 0, 0]","[9, 5, 2]",1,There are four stars.,1,undefined,filler,There are four notes.,True,,,0,There are four triangles.,True,True,,2181,"[0, 1]","[6, 7, 0]","[0, 1]",1,1,4572
"[6, 2, 1]",,,exh-only,1,"[0, 0, 0]",1,12.441716666666666,1,"[0, 0, 0]","[7, 8, 2]",1,There are four circles.,1,undefined,response,There are four stars.,True,,,1,There are four circles.,True,True,,1363,"[0, 1]","[7, 4, 1]","[0, 1]",0,1,3784
"[0, 5, 6]",,,exh-only,1,"[0, 0, 0]",0,12.441716666666666,2,"[0, 0, 0]","[5, 8, 7]",1,There is a circle.,0,undefined,filler,There is a diamond.,True,,,0,There is a square.,True,True,,2709,"[0, 1]","[7, 8, 5]","[1, 0]",1,1,5999
"[7, 6, 1]",,,exh-only,0,"[5, 0, 0]",1,12.441716666666666,1,"[5, 0, 0]","[9, 1, 4]",1,2 + 3 = ?,1,undefined,filler,6 + 1 = ?,True,,,3,There are four triangles.,True,True,,2863,"[1, 0]","[5, 2, 3]","[0, 1]",1,0,5700
"[4, 5, 0]",,,exh-only,1,"[0, 0, 0]",0,12.441716666666666,2,"[0, 0, 0]","[5, 6, 2]",1,There is only a heart.,0,undefined,filler,There is only a heart.,True,,,2,There is a square.,True,True,,1544,"[0, 1]","[4, 5, 8]","[1, 0]",1,1,4314
"[4, 2, 0]",,,exh-only,0,"[0, 0, 0]",0,12.441716666666666,2,"[0, 0, 0]","[8, 1, 3]",1,There is only a square.,0,undefined,response,There is only a heart.,True,,,2,There is a note.,True,True,,1625,"[1, 0]","[5, 1, 2]","[1, 0]",0,0,4975
"[5, 2, 9]",,,exh-only,0,"[0, 0, 0]",1,12.441716666666666,0,"[0, 0, 0]","[7, 8, 3]",1,Some of the symbols are stars.,1,undefined,filler,Some of the symbols are squares.,True,,,0,Some of the symbols are circles.,True,True,,1680,"[1, 0]","[6, 4, 7]","[0, 1]",1,0,6840
"[4, 9, 0]",,,exh-only,0,"[0, 0, 0]",0,12.441716666666666,1,"[0, 0, 0]","[2, 0, 5]",1,There are four spades.,0,undefined,filler,There are four hearts.,True,,,1,There are four ticks.,True,True,,1315,"[1, 0]","[3, 1, 0]","[1, 0]",1,0,4308
"[9, 6, 3]",,,exh-only,1,"[0, 0, 0]",0,12.441716666666666,0,"[0, 0, 0]","[8, 7, 5]",1,Only some of the symbols are clubs.,0,undefined,filler,Only some of the symbols are triangles.,True,,,2,Some of the symbols are notes.,True,True,,1911,"[0, 1]","[1, 8, 2]","[1, 0]",1,1,6669
"[0, 9, 5]",,,exh-only,0,"[0, 0, 0]",0,12.441716666666666,1,"[0, 0, 0]","[7, 6, 2]",1,There are only four spades.,0,undefined,filler,There are only four diamonds.,True,,,2,There are four circles.,True,True,,1336,"[1, 0]","[3, 5, 9]","[1, 0]",1,0,3743
"[3, 8, 2]",,,exh-only,1,"[0, 0, 0]",1,12.441716666666666,1,"[0, 0, 0]","[7, 3, 0]",1,There are only four diamonds.,1,undefined,filler,There are only four spades.,True,,,2,There are four circles.,True,True,,1295,"[0, 1]","[0, 7, 9]","[0, 1]",1,1,5085
"[1, 4, 5]",,,exh-only,1,"[0, 0, 0]",0,12.441716666666666,0,"[0, 0, 0]","[9, 1, 6]",1,Some of the symbols are circles.,0,undefined,response,Some of the symbols are clubs.,True,,,1,Some of the symbols are triangles.,True,True,,3797,"[0, 1]","[7, 0, 9]","[1, 0]",0,1,8480
"[5, 7, 8]",,,exh-only,0,"[0, 0, 0]",0,12.441716666666666,2,"[0, 0, 0]","[5, 3, 4]",1,There is only a circle.,0,undefined,filler,There is only a square.,True,,,2,There is a square.,True,True,,1877,"[1, 0]","[7, 9, 5]","[1, 0]",1,0,4175
,1,,,,,,14.998283333333333,,,,2,,,undefined,,,,"[0, 'Mary']",Mary,,,,,bot_check,,,,,,,
"[6, 8, 7]",,,exh-only,0,"[0, 0, 0]",0,14.998283333333333,2,"[0, 0, 0]","[9, 7, 8]",2,There is only a triangle.,0,undefined,response,There is only a star.,True,,,2,There is a triangle.,True,True,,3438,"[1, 0]","[9, 1, 2]","[1, 0]",0,0,11528
"[6, 3, 7]",,,exh-only,1,"[0, 0, 0]",1,14.998283333333333,2,"[0, 0, 0]","[6, 5, 9]",2,There is a star.,1,undefined,filler,There is a star.,True,,,1,There is a star.,True,True,,2229,"[0, 1]","[6, 3, 7]","[0, 1]",1,1,7620
"[3, 6, 7]",,,exh-only,1,"[0, 0, 0]",0,14.998283333333333,1,"[0, 0, 0]","[5, 0, 2]",2,There are only four ticks.,0,undefined,response,There are only four spades.,True,,,2,There are four squares.,True,True,,1977,"[0, 1]","[2, 9, 0]","[1, 0]",1,1,8591
"[0, 1, 6]",,,exh-only,1,"[0, 0, 0]",1,14.998283333333333,0,"[0, 0, 0]","[1, 9, 0]",2,Some of the symbols are spades.,1,undefined,response,Some of the symbols are diamonds.,True,,,1,Some of the symbols are clubs.,True,True,,3047,"[0, 1]","[3, 4, 5]","[0, 1]",1,1,11604
"[5, 4, 1]",,,exh-only,1,"[2, 0, 0]",1,14.998283333333333,2,"[6, 0, 0]","[4, 0, 9]",2,2 + 7 = ?,1,undefined,response,4 + 1 = ?,False,,,3,There is a heart.,False,True,,1579,"[0, 1]","[9, 2, 7]","[0, 1]",0,0,5716
"[7, 4, 2]",,,exh-only,0,"[0, 0, 0]",1,14.998283333333333,0,"[0, 0, 0]","[3, 4, 2]",2,Only some of the symbols are ticks.,1,undefined,response,Only some of the symbols are circles.,True,,,2,Some of the symbols are spades.,True,True,,2614,"[1, 0]","[2, 1, 6]","[0, 1]",1,0,39901
"[0, 5, 1]",,,exh-only,0,"[0, 0, 0]",1,14.998283333333333,0,"[0, 0, 0]","[7, 3, 0]",2,Some of the symbols are ticks.,1,undefined,filler,Some of the symbols are diamonds.,True,,,0,Some of the symbols are circles.,True,True,,3137,"[1, 0]","[2, 3, 0]","[0, 1]",1,0,12715
"[10, 9, 1]",,,exh-only,1,"[9, 0, 0]",0,14.998283333333333,2,"[9, 0, 0]","[6, 7, 5]",2,1 + 1 = ?,0,undefined,response,9 + 1 = ?,True,,,3,There is a star.,True,True,,1425,"[0, 1]","[2, 1, 1]","[1, 0]",0,1,5283
"[11, 7, 4]",,,exh-only,1,"[0, 0, 0]",1,14.998283333333333,1,"[6, 0, 0]","[8, 2, 0]",2,2 + 4 = ?,0,undefined,filler,7 + 4 = ?,False,,,3,There are four notes.,False,False,,1881,"[0, 1]","[6, 2, 4]","[1, 0]",1,0,14333
"[5, 0, 4]",,,exh-only,0,"[0, 0, 0]",0,14.998283333333333,2,"[0, 0, 0]","[4, 8, 5]",2,There is a note.,0,undefined,filler,There is a square.,True,,,1,There is a heart.,True,True,,1608,"[1, 0]","[8, 1, 6]","[1, 0]",1,0,6485
"[2, 6, 7]",,,exh-only,0,"[0, 0, 0]",1,14.998283333333333,2,"[0, 0, 0]","[4, 7, 3]",2,There is only a star.,1,undefined,filler,There is only a tick.,True,,,2,There is a heart.,True,True,,1849,"[1, 0]","[6, 7, 9]","[0, 1]",1,0,4992
"[1, 8, 7]",,,exh-only,0,"[0, 0, 0]",1,14.998283333333333,0,"[0, 0, 0]","[7, 4, 5]",2,Some of the symbols are triangles.,1,undefined,filler,Some of the symbols are clubs.,True,,,1,Some of the symbols are circles.,True,True,,2238,"[1, 0]","[9, 5, 4]","[0, 1]",1,0,7017
"[2, 9, 4]",,,exh-only,1,"[0, 0, 0]",1,14.998283333333333,2,"[0, 0, 0]","[4, 9, 6]",2,There is a tick.,1,undefined,filler,There is a tick.,True,,,1,There is a heart.,True,True,,1882,"[0, 1]","[2, 6, 0]","[0, 1]",1,1,5770
"[3, 6, 4]",,,exh-only,1,"[0, 0, 0]",1,14.998283333333333,0,"[0, 0, 0]","[0, 4, 8]",2,Only some of the symbols are hearts.,1,undefined,filler,Only some of the symbols are spades.,True,,,2,Some of the symbols are diamonds.,True,True,,5031,"[0, 1]","[4, 8, 0]","[0, 1]",1,1,15714
"[10, 6, 4]",,,exh-only,0,"[1, 0, 0]",0,14.998283333333333,1,"[1, 0, 0]","[0, 7, 1]",2,2 + 6 = ?,0,undefined,filler,6 + 4 = ?,False,,,3,There are four diamonds.,False,True,,1729,"[1, 0]","[8, 2, 6]","[1, 0]",1,1,6326
"[0, 4, 8]",,,exh-only,0,"[0, 0, 0]",1,14.998283333333333,2,"[0, 0, 0]","[4, 2, 5]",2,There is a circle.,1,undefined,response,There is a diamond.,True,,,0,There is a heart.,True,True,,2146,"[1, 0]","[7, 6, 1]","[0, 1]",0,0,5500
"[8, 2, 0]",,,exh-only,0,"[0, 0, 0]",1,14.998283333333333,1,"[0, 0, 0]","[2, 3, 4]",2,There are four spades.,1,undefined,filler,There are four notes.,True,,,0,There are four ticks.,True,True,,1869,"[1, 0]","[3, 0, 6]","[0, 1]",1,0,7174
"[0, 1, 2]",,,exh-only,1,"[0, 0, 0]",1,14.998283333333333,0,"[0, 0, 0]","[1, 5, 8]",2,Some of the symbols are clubs.,1,undefined,filler,Some of the symbols are diamonds.,True,,,0,Some of the symbols are clubs.,True,True,,2569,"[0, 1]","[1, 5, 0]","[0, 1]",1,1,8218
"[10, 9, 1]",,,exh-only,1,"[1, 0, 0]",1,14.998283333333333,2,"[5, 0, 0]","[2, 0, 5]",2,0 + 4 = ?,1,undefined,response,9 + 1 = ?,False,,,3,There is a tick.,False,True,,1760,"[0, 1]","[4, 0, 4]","[0, 1]",0,0,8778
"[1, 9, 8]",,,exh-only,0,"[0, 0, 0]",0,14.998283333333333,1,"[0, 0, 0]","[4, 7, 1]",2,There are four circles.,0,undefined,filler,There are four clubs.,True,,,0,There are four hearts.,True,True,,1440,"[1, 0]","[7, 4, 2]","[1, 0]",1,0,5785
"[15, 7, 8]",,,exh-only,1,"[3, 0, 0]",1,14.998283333333333,1,"[3, 0, 0]","[9, 2, 5]",2,8 + 3 = ?,0,undefined,response,7 + 8 = ?,False,,,3,There are four triangles.,False,False,,1756,"[0, 1]","[11, 8, 3]","[1, 0]",0,0,4625
"[0, 0, 0]",,,exh-only,1,"[2, 0, 0]",1,14.998283333333333,0,"[6, 0, 0]","[1, 7, 4]",2,6 + 6 = ?,0,undefined,response,0 + 0 = ?,False,,,3,Some of the symbols are clubs.,False,False,,2618,"[0, 1]","[12, 6, 6]","[1, 0]",0,0,5267
"[3, 5, 4]",,,exh-only,0,"[0, 0, 0]",1,14.998283333333333,1,"[0, 0, 0]","[8, 0, 6]",2,There are four notes.,1,undefined,filler,There are four spades.,True,,,1,There are four notes.,True,True,,2469,"[1, 0]","[8, 1, 3]","[0, 1]",1,0,6267
"[7, 9, 8]",,,exh-only,1,"[0, 0, 0]",0,14.998283333333333,1,"[0, 0, 0]","[6, 9, 8]",2,There are only four diamonds.,0,undefined,filler,There are only four circles.,True,,,2,There are four stars.,True,True,,3316,"[0, 1]","[0, 8, 6]","[1, 0]",1,1,8342
"[6, 3, 8]",,,exh-only,0,"[0, 0, 0]",0,14.998283333333333,1,"[0, 0, 0]","[9, 5, 8]",2,There are four squares.,0,undefined,response,There are four stars.,True,,,1,There are four triangles.,True,True,,2423,"[1, 0]","[5, 2, 1]","[1, 0]",1,0,5931
"[16, 7, 9]",,,exh-only,1,"[2, 0, 0]",0,14.998283333333333,0,"[1, 0, 0]","[8, 0, 4]",2,1 + 8 = ?,0,undefined,response,7 + 9 = ?,True,,,3,Some of the symbols are notes.,True,True,,2223,"[0, 1]","[9, 1, 8]","[1, 0]",0,1,6276
"[15, 9, 6]",,,exh-only,0,"[2, 0, 0]",1,14.998283333333333,1,"[0, 0, 0]","[4, 8, 2]",2,5 + 8 = ?,0,undefined,response,9 + 6 = ?,False,,,3,There are four hearts.,True,False,,1424,"[1, 0]","[13, 5, 8]","[1, 0]",0,0,6626
"[7, 2, 5]",,,exh-only,0,"[1, 0, 0]",1,14.998283333333333,2,"[7, 0, 0]","[7, 4, 3]",2,9 + 8 = ?,0,undefined,filler,2 + 5 = ?,False,,,3,There is a circle.,False,False,,1636,"[1, 0]","[17, 9, 8]","[1, 0]",1,1,8528
"[6, 2, 0]",,,exh-only,0,"[0, 0, 0]",1,14.998283333333333,1,"[0, 0, 0]","[5, 8, 1]",2,There are four stars.,1,undefined,response,There are four stars.,True,,,0,There are four squares.,True,True,,7265,"[1, 0]","[6, 2, 4]","[0, 1]",0,0,12191
"[10, 1, 9]",,,exh-only,1,"[5, 0, 0]",1,14.998283333333333,1,"[6, 0, 0]","[6, 9, 0]",2,9 + 0 = ?,1,undefined,response,1 + 9 = ?,False,,,3,There are four stars.,False,True,,1082,"[0, 1]","[9, 9, 0]","[0, 1]",0,0,4338
"[10, 1, 9]",,,exh-only,0,"[5, 0, 0]",1,14.998283333333333,0,"[0, 0, 0]","[0, 3, 6]",2,7 + 7 = ?,1,undefined,filler,1 + 9 = ?,True,,,3,Some of the symbols are diamonds.,True,True,,4014,"[1, 0]","[14, 7, 7]","[0, 1]",1,0,6524
"[1, 7, 6]",,,exh-only,0,"[0, 0, 0]",1,14.998283333333333,0,"[0, 0, 0]","[8, 5, 1]",2,Only some of the symbols are notes.,1,undefined,filler,Only some of the symbols are clubs.,True,,,2,Some of the symbols are notes.,True,True,,3115,"[1, 0]","[8, 9, 6]","[0, 1]",1,0,7130
"[9, 7, 0]",,,exh-only,1,"[0, 0, 0]",0,14.998283333333333,0,"[0, 0, 0]","[1, 7, 0]",2,Some of the symbols are triangles.,0,undefined,response,Some of the symbols are triangles.,True,,,0,Some of the symbols are clubs.,True,True,,6134,"[0, 1]","[9, 5, 1]","[1, 0]",0,1,10451
"[7, 2, 5]",,,exh-only,1,"[7, 0, 0]",1,14.998283333333333,2,"[6, 0, 0]","[8, 5, 2]",2,7 + 4 = ?,0,undefined,filler,2 + 5 = ?,False,,,3,There is a note.,False,False,,2113,"[0, 1]","[11, 7, 4]","[1, 0]",1,0,4761
"[3, 8, 2]",,,exh-only,1,"[0, 0, 0]",0,14.998283333333333,0,"[0, 0, 0]","[6, 9, 0]",2,Only some of the symbols are squares.,0,undefined,filler,Only some of the symbols are spades.,True,,,2,Some of the symbols are stars.,True,True,,3047,"[0, 1]","[5, 4, 0]","[1, 0]",1,1,8653
"[0, 9, 4]",,,exh-only,0,"[0, 0, 0]",1,14.998283333333333,1,"[0, 0, 0]","[8, 7, 2]",2,There are only four spades.,1,undefined,filler,There are only four diamonds.,True,,,2,There are four notes.,True,True,,1897,"[1, 0]","[3, 1, 2]","[0, 1]",1,0,4797
"[9, 6, 0]",,,exh-only,0,"[0, 0, 0]",0,14.998283333333333,2,"[0, 0, 0]","[0, 3, 7]",2,There is a tick.,1,undefined,response,There is a triangle.,False,,,0,There is a diamond.,True,False,,2789,"[1, 0]","[2, 8, 1]","[0, 1]",0,0,7486
"[2, 9, 8]",,,exh-only,1,"[0, 0, 0]",1,14.998283333333333,1,"[0, 0, 0]","[6, 9, 7]",2,There are four triangles.,1,undefined,filler,There are four ticks.,True,,,1,There are four stars.,True,True,,2021,"[0, 1]","[9, 8, 6]","[0, 1]",1,1,6758
"[1, 6, 0]",,,exh-only,0,"[0, 0, 0]",0,14.998283333333333,0,"[0, 0, 0]","[8, 0, 7]",2,Only some of the symbols are ticks.,0,undefined,response,Only some of the symbols are clubs.,True,,,2,Some of the symbols are notes.,True,True,,1605,"[1, 0]","[2, 9, 3]","[1, 0]",0,0,10259
"[8, 3, 6]",,,exh-only,0,"[0, 0, 0]",1,14.998283333333333,1,"[0, 0, 0]","[7, 9, 0]",2,There are four ticks.,1,undefined,response,There are four notes.,True,,,0,There are four circles.,True,True,,1977,"[1, 0]","[2, 3, 8]","[0, 1]",0,0,7038
"[9, 5, 4]",,,exh-only,0,"[0, 0, 0]",1,14.998283333333333,2,"[6, 0, 0]","[4, 8, 3]",2,0 + 2 = ?,0,undefined,filler,5 + 4 = ?,False,,,3,There is a heart.,False,False,,2523,"[1, 0]","[2, 0, 2]","[1, 0]",1,1,9838
"[0, 8, 9]",,,exh-only,1,"[0, 0, 0]",0,14.998283333333333,1,"[0, 0, 0]","[1, 4, 9]",2,There are only four spades.,0,undefined,filler,There are only four diamonds.,True,,,2,There are four clubs.,True,True,,1844,"[0, 1]","[3, 4, 7]","[1, 0]",1,1,7205
"[4, 3, 0]",,,exh-only,0,"[0, 0, 0]",0,14.998283333333333,1,"[0, 0, 0]","[6, 4, 9]",2,There are four triangles.,0,undefined,filler,There are four hearts.,True,,,1,There are four stars.,True,True,,1810,"[1, 0]","[9, 2, 8]","[1, 0]",1,0,5199
"[11, 4, 7]",,,exh-only,1,"[5, 0, 0]",1,14.998283333333333,0,"[6, 0, 0]","[4, 5, 6]",2,6 + 1 = ?,1,undefined,filler,4 + 7 = ?,False,,,3,Some of the symbols are hearts.,False,True,,1915,"[0, 1]","[7, 6, 1]","[0, 1]",1,0,5013
"[0, 7, 4]",,,exh-only,0,"[0, 0, 0]",0,14.998283333333333,2,"[0, 0, 0]","[2, 7, 1]",2,There is a star.,0,undefined,filler,There is a diamond.,True,,,0,There is a tick.,True,True,,1562,"[1, 0]","[6, 7, 9]","[1, 0]",1,0,5261
"[4, 0, 7]",,,exh-only,0,"[0, 0, 0]",1,14.998283333333333,0,"[0, 0, 0]","[1, 0, 3]",2,Some of the symbols are notes.,1,undefined,filler,Some of the symbols are hearts.,True,,,0,Some of the symbols are clubs.,True,True,,2013,"[1, 0]","[8, 5, 0]","[0, 1]",1,0,6334
"[9, 5, 4]",,,exh-only,0,"[5, 0, 0]",1,14.998283333333333,0,"[1, 0, 0]","[8, 9, 0]",2,5 + 2 = ?,1,undefined,response,5 + 4 = ?,True,,,3,Some of the symbols are notes.,True,True,,1916,"[1, 0]","[7, 5, 2]","[0, 1]",0,0,4717
"[2, 5, 1]",,,exh-only,1,"[0, 0, 0]",1,14.998283333333333,0,"[0, 0, 0]","[2, 6, 9]",2,Some of the symbols are diamonds.,1,undefined,filler,Some of the symbols are ticks.,True,,,0,Some of the symbols are ticks.,True,True,,3281,"[0, 1]","[0, 7, 6]","[0, 1]",1,1,7128
"[4, 9, 6]",,,exh-only,0,"[0, 0, 0]",0,14.998283333333333,1,"[0, 0, 0]","[4, 1, 8]",2,There are only four notes.,0,undefined,filler,There are only four hearts.,True,,,2,There are four hearts.,True,True,,4602,"[1, 0]","[8, 4, 7]","[1, 0]",1,0,8790
"[3, 2, 4]",,,exh-only,1,"[0, 0, 0]",0,14.998283333333333,1,"[0, 0, 0]","[9, 6, 3]",2,There are four spades.,0,undefined,response,There are four spades.,True,,,1,There are four triangles.,True,True,,2716,"[0, 1]","[3, 4, 2]","[1, 0]",1,1,7780
"[12, 5, 7]",,,exh-only,1,"[4, 0, 0]",0,14.998283333333333,0,"[7, 0, 0]","[0, 9, 3]",2,8 + 0 = ?,0,undefined,response,5 + 7 = ?,True,,,3,Some of the symbols are diamonds.,True,True,,4138,"[0, 1]","[8, 8, 0]","[1, 0]",0,1,8199
"[5, 0, 3]",,,exh-only,0,"[0, 0, 0]",0,14.998283333333333,2,"[0, 0, 0]","[7, 0, 3]",2,There is a triangle.,0,undefined,response,There is a square.,True,,,1,There is a circle.,True,True,,3160,"[1, 0]","[9, 4, 1]","[1, 0]",1,0,8767
"[4, 1, 5]",,,exh-only,1,"[0, 0, 0]",1,14.998283333333333,1,"[0, 0, 0]","[3, 9, 1]",2,There are four clubs.,1,undefined,response,There are four hearts.,True,,,0,There are four spades.,True,True,,1859,"[0, 1]","[1, 0, 7]","[0, 1]",0,1,8992
"[0, 9, 6]",,,exh-only,0,"[0, 0, 0]",1,14.998283333333333,2,"[0, 0, 0]","[8, 7, 1]",2,There is a square.,1,undefined,filler,There is a diamond.,True,,,0,There is a note.,True,True,,2673,"[1, 0]","[5, 7, 9]","[0, 1]",1,0,8200
"[8, 6, 2]",,,exh-only,0,"[1, 0, 0]",0,14.998283333333333,0,"[2, 0, 0]","[3, 5, 7]",2,6 + 9 = ?,0,undefined,filler,6 + 2 = ?,False,,,3,Some of the symbols are spades.,False,True,,2106,"[1, 0]","[15, 6, 9]","[1, 0]",1,1,5139
"[4, 8, 0]",,,exh-only,1,"[0, 0, 0]",0,14.998283333333333,1,"[0, 0, 0]","[1, 2, 9]",2,There are four squares.,0,undefined,filler,There are four hearts.,True,,,0,There are four clubs.,True,True,,4384,"[0, 1]","[5, 3, 7]","[1, 0]",1,1,7519
"[6, 2, 5]",,,exh-only,1,"[0, 0, 0]",0,14.998283333333333,2,"[0, 0, 0]","[6, 2, 9]",2,There is only a triangle.,0,undefined,filler,There is only a star.,True,,,2,There is a star.,True,True,,2360,"[0, 1]","[9, 8, 4]","[1, 0]",1,1,5429
"[2, 7, 5]",,,exh-only,1,"[0, 0, 0]",0,14.998283333333333,0,"[0, 0, 0]","[0, 5, 1]",2,Some of the symbols are squares.,0,undefined,filler,Some of the symbols are ticks.,True,,,1,Some of the symbols are diamonds.,True,True,,3252,"[0, 1]","[5, 3, 8]","[1, 0]",1,1,7959
"[8, 5, 3]",,,exh-only,0,"[4, 0, 0]",1,14.998283333333333,1,"[5, 0, 0]","[4, 0, 9]",2,5 + 1 = ?,0,undefined,filler,5 + 3 = ?,False,,,3,There are four hearts.,True,False,,2795,"[1, 0]","[6, 5, 1]","[1, 0]",1,0,5868
"[0, 8, 3]",,,exh-only,1,"[0, 0, 0]",1,14.998283333333333,1,"[0, 0, 0]","[8, 1, 0]",2,There are only four hearts.,1,undefined,response,There are only four diamonds.,True,,,2,There are four notes.,True,True,,5194,"[0, 1]","[4, 5, 8]","[0, 1]",1,1,8496
"[2, 7, 8]",,,exh-only,0,"[0, 0, 0]",1,14.998283333333333,2,"[0, 0, 0]","[4, 6, 1]",2,There is a diamond.,1,undefined,response,There is a tick.,True,,,1,There is a heart.,True,True,,1831,"[1, 0]","[0, 3, 4]","[0, 1]",0,0,8758
"[8, 0, 6]",,,exh-only,0,"[0, 0, 0]",1,14.998283333333333,2,"[0, 0, 0]","[1, 4, 8]",2,There is a diamond.,1,undefined,response,There is a note.,True,,,0,There is a club.,True,True,,3542,"[1, 0]","[0, 1, 7]","[0, 1]",0,0,6974
"[4, 3, 6]",,,exh-only,1,"[0, 0, 0]",0,14.998283333333333,2,"[0, 0, 0]","[4, 5, 8]",2,There is a note.,0,undefined,response,There is a heart.,True,,,1,There is a heart.,True,True,,1290,"[0, 1]","[8, 4, 9]","[1, 0]",0,1,5558
"[0, 2, 6]",,,exh-only,1,"[0, 0, 0]",0,14.998283333333333,2,"[0, 0, 0]","[5, 3, 0]",2,There is a club.,0,undefined,filler,There is a diamond.,True,,,0,There is a square.,True,True,,1788,"[0, 1]","[1, 0, 9]","[1, 0]",1,1,5180
"[6, 3, 8]",,,exh-only,0,"[0, 0, 0]",1,14.998283333333333,2,"[0, 0, 0]","[3, 1, 5]",2,There is a tick.,1,undefined,response,There is a star.,True,,,0,There is a spade.,True,True,,1738,"[1, 0]","[2, 0, 6]","[0, 1]",0,0,6631
"[9, 7, 2]",,,exh-only,0,"[0, 0, 0]",0,14.998283333333333,0,"[0, 0, 0]","[5, 7, 6]",2,Only some of the symbols are circles.,0,undefined,filler,Only some of the symbols are triangles.,True,,,2,Some of the symbols are squares.,True,True,,4081,"[1, 0]","[7, 8, 9]","[1, 0]",1,0,7994
"[6, 5, 1]",,,exh-only,1,"[4, 0, 0]",0,14.998283333333333,2,"[1, 0, 0]","[7, 0, 9]",2,9 + 6 = ?,0,undefined,filler,5 + 1 = ?,True,,,3,There is a circle.,True,True,,5289,"[0, 1]","[15, 9, 6]","[1, 0]",1,1,8225
"[10, 1, 9]",,,exh-only,1,"[8, 0, 0]",1,14.998283333333333,2,"[7, 0, 0]","[6, 4, 7]",2,5 + 8 = ?,0,undefined,response,1 + 9 = ?,False,,,3,There is a star.,False,False,,1692,"[0, 1]","[13, 5, 8]","[1, 0]",0,0,5398
"[1, 0, 4]",,,exh-only,1,"[0, 0, 0]",1,14.998283333333333,0,"[0, 0, 0]","[4, 5, 1]",2,Only some of the symbols are clubs.,1,undefined,response,Only some of the symbols are clubs.,True,,,2,Some of the symbols are hearts.,True,True,,2171,"[0, 1]","[1, 5, 6]","[0, 1]",1,1,8796
"[0, 8, 7]",,,exh-only,0,"[0, 0, 0]",0,14.998283333333333,1,"[0, 0, 0]","[6, 0, 3]",2,There are only four diamonds.,0,undefined,response,There are only four diamonds.,True,,,2,There are four stars.,True,True,,1785,"[1, 0]","[0, 9, 2]","[1, 0]",1,0,5532
"[2, 5, 3]",,,exh-only,0,"[0, 0, 0]",0,14.998283333333333,2,"[0, 0, 0]","[0, 5, 7]",2,There is only a tick.,0,undefined,response,There is only a tick.,True,,,2,There is a diamond.,True,True,,1376,"[1, 0]","[2, 8, 6]","[1, 0]",0,0,27646
"[7, 9, 2]",,,exh-only,1,"[0, 0, 0]",1,14.998283333333333,1,"[0, 0, 0]","[3, 7, 5]",2,There are four triangles.,1,undefined,response,There are four circles.,True,,,1,There are four spades.,True,True,,1828,"[0, 1]","[9, 7, 2]","[0, 1]",0,1,5533
"[5, 9, 6]",,,exh-only,0,"[0, 0, 0]",0,14.998283333333333,2,"[0, 0, 0]","[6, 5, 4]",2,There is a note.,0,undefined,response,There is a square.,True,,,1,There is a star.,True,True,,1158,"[1, 0]","[8, 3, 4]","[1, 0]",0,0,9583
"[7, 4, 9]",,,exh-only,1,"[0, 0, 0]",1,14.998283333333333,2,"[0, 0, 0]","[0, 6, 5]",2,There is only a circle.,1,undefined,response,There is only a circle.,True,,,2,There is a diamond.,True,True,,1362,"[0, 1]","[7, 6, 1]","[0, 1]",0,1,5786
"[6, 5, 0]",,,exh-only,1,"[0, 0, 0]",1,14.998283333333333,2,"[0, 0, 0]","[3, 5, 6]",2,There is a circle.,1,undefined,filler,There is a star.,True,,,0,There is a spade.,True,True,,2349,"[0, 1]","[7, 6, 1]","[0, 1]",1,1,5350
"[5, 7, 2]",,,exh-only,0,"[0, 0, 0]",0,14.998283333333333,2,"[0, 0, 0]","[4, 6, 5]",2,There is only a circle.,0,undefined,filler,There is only a square.,True,,,2,There is a heart.,True,True,,1278,"[1, 0]","[7, 4, 2]","[1, 0]",0,0,7359
"[0, 4, 3]",,,exh-only,1,"[0, 0, 0]",1,14.998283333333333,2,"[0, 0, 0]","[0, 4, 6]",2,There is only a club.,1,undefined,filler,There is only a diamond.,True,,,2,There is a diamond.,True,True,,2174,"[0, 1]","[1, 3, 6]","[0, 1]",1,1,5819
"[5, 4, 8]",,,exh-only,0,"[0, 0, 0]",1,14.998283333333333,2,"[0, 0, 0]","[6, 7, 1]",2,There is a square.,1,undefined,filler,There is a square.,True,,,1,There is a star.,True,True,,1771,"[1, 0]","[5, 4, 6]","[0, 1]",1,0,4371
"[9, 3, 7]",,,exh-only,1,"[0, 0, 0]",1,14.998283333333333,0,"[0, 0, 0]","[2, 1, 6]",2,Only some of the symbols are ticks.,1,undefined,response,Only some of the symbols are triangles.,True,,,2,Some of the symbols are ticks.,True,True,,3057,"[0, 1]","[2, 1, 6]","[0, 1]",0,1,6814
"[6, 5, 0]",,,exh-only,1,"[0, 0, 0]",0,14.998283333333333,1,"[0, 0, 0]","[4, 6, 8]",2,There are only four ticks.,0,undefined,response,There are only four stars.,True,,,2,There are four hearts.,True,True,,4464,"[0, 1]","[2, 3, 4]","[1, 0]",1,1,8894
"[8, 3, 4]",,,exh-only,1,"[0, 0, 0]",1,14.998283333333333,0,"[0, 0, 0]","[9, 6, 3]",2,Some of the symbols are stars.,1,undefined,response,Some of the symbols are notes.,True,,,1,Some of the symbols are triangles.,True,True,,6327,"[0, 1]","[6, 8, 9]","[0, 1]",1,1,12847
"[4, 3, 2]",,,exh-only,0,"[0, 0, 0]",0,14.998283333333333,0,"[0, 0, 0]","[5, 6, 1]",2,Some of the symbols are stars.,0,undefined,response,Some of the symbols are hearts.,True,,,1,Some of the symbols are squares.,True,True,,5990,"[1, 0]","[6, 9, 5]","[1, 0]",1,0,11451
"[7, 0, 3]",,,exh-only,1,"[0, 0, 0]",1,14.998283333333333,0,"[0, 0, 0]","[0, 2, 8]",2,Some of the symbols are diamonds.,1,undefined,filler,Some of the symbols are circles.,True,,,1,Some of the symbols are diamonds.,True,True,,2057,"[0, 1]","[0, 5, 4]","[0, 1]",1,1,8567
"[17, 8, 9]",,,exh-only,1,"[7, 0, 0]",0,14.998283333333333,1,"[8, 0, 0]","[7, 0, 2]",2,0 + 1 = ?,0,undefined,response,8 + 9 = ?,True,,,3,There are four circles.,True,True,,1798,"[0, 1]","[1, 0, 1]","[1, 0]",1,1,4735
"[4, 6, 7]",,,exh-only,1,"[0, 0, 0]",1,14.998283333333333,1,"[0, 0, 0]","[0, 2, 4]",2,There are four triangles.,1,undefined,filler,There are four hearts.,True,,,0,There are four diamonds.,True,True,,1594,"[0, 1]","[9, 1, 0]","[0, 1]",1,1,10439
"[3, 1, 9]",,,exh-only,0,"[0, 0, 0]",1,14.998283333333333,0,"[0, 0, 0]","[2, 0, 3]",2,Some of the symbols are ticks.,1,undefined,response,Some of the symbols are spades.,False,,,0,Some of the symbols are ticks.,False,True,,2302,"[1, 0]","[2, 7, 9]","[0, 1]",1,1,7599
"[11, 6, 5]",,,exh-only,1,"[1, 0, 0]",1,14.998283333333333,1,"[0, 0, 0]","[2, 8, 4]",2,4 + 6 = ?,0,undefined,filler,6 + 5 = ?,False,,,3,There are four ticks.,False,False,,1386,"[0, 1]","[10, 4, 6]","[1, 0]",1,0,4519
"[4, 7, 2]",,,exh-only,0,"[0, 0, 0]",1,14.998283333333333,1,"[0, 0, 0]","[2, 9, 0]",2,There are four spades.,1,undefined,response,There are four hearts.,True,,,1,There are four ticks.,True,True,,1536,"[1, 0]","[3, 7, 1]","[0, 1]",1,0,4176
"[9, 4, 1]",,,exh-only,0,"[0, 0, 0]",1,14.998283333333333,0,"[0, 0, 0]","[8, 9, 0]",2,Some of the symbols are hearts.,1,undefined,response,Some of the symbols are triangles.,True,,,0,Some of the symbols are notes.,True,True,,1857,"[1, 0]","[4, 2, 9]","[0, 1]",1,0,6774
"[1, 6, 5]",,,exh-only,0,"[0, 0, 0]",0,14.998283333333333,0,"[0, 0, 0]","[6, 4, 0]",2,Some of the symbols are notes.,0,undefined,response,Some of the symbols are clubs.,True,,,1,Some of the symbols are stars.,True,True,,2025,"[1, 0]","[8, 5, 0]","[1, 0]",1,0,7095
"[9, 5, 7]",,,exh-only,0,"[0, 0, 0]",0,14.998283333333333,1,"[0, 0, 0]","[5, 7, 2]",2,There are four squares.,0,undefined,response,There are four triangles.,True,,,0,There are four squares.,True,True,,1365,"[1, 0]","[5, 2, 8]","[1, 0]",1,0,5112
"[1, 6, 2]",,,exh-only,1,"[0, 0, 0]",0,14.998283333333333,1,"[0, 0, 0]","[3, 9, 1]",2,There are four squares.,0,undefined,filler,There are four clubs.,True,,,1,There are four spades.,True,True,,1711,"[0, 1]","[5, 6, 1]","[1, 0]",1,1,5802
"[9, 3, 5]",,,exh-only,1,"[0, 0, 0]",1,14.998283333333333,2,"[0, 0, 0]","[0, 8, 7]",2,There is only a diamond.,1,undefined,response,There is only a triangle.,True,,,2,There is a diamond.,True,True,,1579,"[0, 1]","[0, 5, 1]","[0, 1]",0,1,4327
"[1, 1, 0]",,,exh-only,1,"[0, 0, 0]",0,14.998283333333333,0,"[3, 0, 0]","[5, 1, 2]",2,6 + 6 = ?,1,undefined,filler,1 + 0 = ?,False,,,3,Some of the symbols are squares.,True,False,,5074,"[0, 1]","[12, 6, 6]","[0, 1]",1,1,7782
"[5, 8, 0]",,,exh-only,0,"[0, 0, 0]",1,14.998283333333333,0,"[0, 0, 0]","[5, 6, 7]",2,Some of the symbols are spades.,1,undefined,filler,Some of the symbols are squares.,True,,,1,Some of the symbols are squares.,True,True,,2718,"[1, 0]","[3, 5, 4]","[0, 1]",1,0,13188
"[3, 7, 0]",,,exh-only,0,"[0, 0, 0]",0,14.998283333333333,0,"[0, 0, 0]","[7, 0, 2]",2,Some of the symbols are notes.,0,undefined,response,Some of the symbols are spades.,True,,,0,Some of the symbols are circles.,True,True,,2096,"[1, 0]","[8, 3, 5]","[1, 0]",1,0,7167
,1,,,,,,5.467183333333334,,,,3,,,undefined,,,,"[0, 'Jessica']",Jessica,,,,,bot_check,,,,,,,
"[11, 6, 5]",,,exh-only,0,"[4, 0, 0]",1,5.467183333333334,2,"[4, 0, 0]","[2, 4, 6]",3,2 + 8 = ?,1,undefined,filler,6 + 5 = ?,True,,,3,There is a tick.,True,True,,2358,"[1, 0]","[10, 2, 8]","[0, 1]",0,0,7191
"[9, 7, 2]",,,exh-only,1,"[0, 0, 0]",0,5.467183333333334,0,"[0, 0, 0]","[8, 2, 5]",3,Only some of the symbols are circles.,1,undefined,response,Only some of the symbols are triangles.,False,,,2,Some of the symbols are notes.,True,False,,619,"[0, 1]","[7, 3, 1]","[0, 1]",1,1,2366
"[6, 7, 9]",,,exh-only,1,"[0, 0, 0]",1,5.467183333333334,0,"[0, 0, 0]","[5, 4, 2]",3,Only some of the symbols are ticks.,0,undefined,filler,Only some of the symbols are stars.,False,,,2,Some of the symbols are squares.,False,False,,588,"[0, 1]","[2, 1, 6]","[1, 0]",0,0,1701
"[7, 9, 5]",,,exh-only,1,"[0, 0, 0]",1,5.467183333333334,0,"[0, 0, 0]","[6, 1, 5]",3,Some of the symbols are ticks.,0,undefined,filler,Some of the symbols are circles.,False,,,1,Some of the symbols are stars.,True,False,,4070,"[0, 1]","[2, 5, 3]","[1, 0]",1,1,74091
"[4, 3, 1]",,,exh-only,0,"[1, 0, 0]",0,5.467183333333334,0,"[6, 0, 0]","[3, 7, 0]",3,9 + 7 = ?,1,undefined,response,3 + 1 = ?,False,,,3,Some of the symbols are spades.,False,False,,500,"[1, 0]","[16, 9, 7]","[0, 1]",1,1,2907
"[8, 4, 3]",,,exh-only,1,"[0, 0, 0]",1,5.467183333333334,1,"[0, 0, 0]","[6, 4, 7]",3,There are only four hearts.,1,undefined,response,There are only four notes.,True,,,2,There are four stars.,True,True,,285,"[0, 1]","[4, 2, 9]","[0, 1]",1,1,1577
"[6, 4, 2]",,,exh-only,1,"[8, 0, 0]",1,5.467183333333334,0,"[1, 0, 0]","[4, 6, 7]",3,3 + 4 = ?,1,undefined,response,4 + 2 = ?,True,,,3,Some of the symbols are hearts.,True,True,,238,"[0, 1]","[7, 3, 4]","[0, 1]",1,1,772
"[18, 9, 9]",,,exh-only,0,"[5, 0, 0]",1,5.467183333333334,2,"[3, 0, 0]","[1, 6, 7]",3,8 + 6 = ?,0,undefined,filler,9 + 9 = ?,False,,,3,There is a club.,False,False,,209,"[1, 0]","[14, 8, 6]","[1, 0]",1,1,625
"[10, 4, 6]",,,exh-only,0,"[8, 0, 0]",0,5.467183333333334,1,"[2, 0, 0]","[7, 5, 2]",3,0 + 7 = ?,1,undefined,response,4 + 6 = ?,False,,,3,There are four circles.,False,False,,218,"[1, 0]","[7, 0, 7]","[0, 1]",0,1,793
"[7, 0, 9]",,,exh-only,1,"[0, 0, 0]",0,5.467183333333334,2,"[0, 0, 0]","[8, 9, 1]",3,There is a note.,1,undefined,response,There is a circle.,False,,,1,There is a note.,False,False,,201,"[0, 1]","[8, 5, 7]","[0, 1]",0,0,627
"[5, 1, 7]",,,exh-only,1,"[0, 0, 0]",0,5.467183333333334,1,"[0, 0, 0]","[2, 7, 1]",3,There are four diamonds.,1,undefined,response,There are four squares.,False,,,1,There are four ticks.,False,False,,210,"[0, 1]","[0, 7, 5]","[0, 1]",0,0,594
"[1, 0, 9]",,,exh-only,0,"[0, 0, 0]",0,5.467183333333334,0,"[0, 0, 0]","[7, 8, 6]",3,Only some of the symbols are diamonds.,1,undefined,response,Only some of the symbols are clubs.,False,,,2,Some of the symbols are circles.,True,False,,200,"[1, 0]","[0, 7, 4]","[0, 1]",0,0,607
"[7, 8, 3]",,,exh-only,0,"[0, 0, 0]",0,5.467183333333334,1,"[0, 0, 0]","[1, 9, 7]",3,There are only four squares.,1,undefined,filler,There are only four circles.,False,,,2,There are four clubs.,True,False,,222,"[1, 0]","[5, 7, 0]","[0, 1]",0,0,652
"[6, 9, 2]",,,exh-only,1,"[0, 0, 0]",0,5.467183333333334,2,"[0, 0, 0]","[4, 6, 5]",3,There is only a star.,1,undefined,filler,There is only a star.,False,,,2,There is a heart.,False,False,,227,"[0, 1]","[6, 9, 3]","[0, 1]",0,0,800
"[11, 5, 6]",,,exh-only,1,"[3, 0, 0]",0,5.467183333333334,2,"[3, 0, 0]","[7, 9, 3]",3,5 + 7 = ?,0,undefined,response,5 + 6 = ?,False,,,3,There is a circle.,False,True,,839,"[0, 1]","[12, 5, 7]","[1, 0]",1,0,1277
"[9, 5, 6]",,,exh-only,0,"[0, 0, 0]",1,5.467183333333334,2,"[0, 0, 0]","[5, 8, 1]",3,There is a star.,0,undefined,response,There is a triangle.,False,,,1,There is a square.,False,False,,229,"[1, 0]","[6, 3, 5]","[1, 0]",1,1,696
"[8, 3, 1]",,,exh-only,1,"[0, 0, 0]",1,5.467183333333334,2,"[0, 0, 0]","[0, 6, 8]",3,There is a spade.,0,undefined,response,There is a note.,False,,,0,There is a diamond.,True,False,,198,"[0, 1]","[3, 1, 0]","[1, 0]",1,1,593
"[3, 7, 9]",,,exh-only,0,"[0, 0, 0]",1,5.467183333333334,1,"[0, 0, 0]","[0, 8, 4]",3,There are four clubs.,0,undefined,response,There are four spades.,False,,,1,There are four diamonds.,False,False,,209,"[1, 0]","[1, 7, 0]","[1, 0]",1,1,628
"[12, 7, 5]",,,exh-only,0,"[4, 0, 0]",1,5.467183333333334,2,"[1, 0, 0]","[1, 6, 3]",3,0 + 0 = ?,1,undefined,filler,7 + 5 = ?,False,,,3,There is a club.,False,True,,209,"[1, 0]","[0, 0, 0]","[0, 1]",1,1,651
"[3, 6, 9]",,,exh-only,0,"[0, 0, 0]",1,5.467183333333334,1,"[0, 0, 0]","[1, 8, 2]",3,There are four diamonds.,0,undefined,filler,There are four spades.,False,,,0,There are four clubs.,False,False,,211,"[1, 0]","[0, 7, 4]","[1, 0]",1,1,658
"[9, 7, 3]",,,exh-only,0,"[0, 0, 0]",1,5.467183333333334,2,"[0, 0, 0]","[0, 6, 8]",3,There is a spade.,0,undefined,filler,There is a triangle.,False,,,0,There is a diamond.,False,False,,244,"[1, 0]","[3, 7, 2]","[1, 0]",1,1,789
"[2, 9, 7]",,,exh-only,1,"[0, 0, 0]",1,5.467183333333334,2,"[0, 0, 0]","[4, 8, 6]",3,There is a spade.,1,undefined,response,There is a tick.,True,,,1,There is a heart.,True,True,,212,"[0, 1]","[3, 6, 7]","[0, 1]",1,1,663
"[8, 0, 2]",,,exh-only,1,"[0, 0, 0]",0,5.467183333333334,0,"[0, 0, 0]","[9, 1, 6]",3,Some of the symbols are circles.,0,undefined,filler,Some of the symbols are notes.,True,,,0,Some of the symbols are triangles.,True,True,,236,"[0, 1]","[7, 6, 2]","[1, 0]",0,1,735
"[11, 2, 9]",,,exh-only,1,"[7, 0, 0]",0,5.467183333333334,2,"[9, 0, 0]","[8, 7, 2]",3,4 + 8 = ?,0,undefined,response,2 + 9 = ?,False,,,3,There is a note.,False,True,,199,"[0, 1]","[12, 4, 8]","[1, 0]",0,0,635
"[6, 0, 1]",,,exh-only,1,"[0, 0, 0]",0,5.467183333333334,1,"[0, 0, 0]","[2, 9, 8]",3,There are only four ticks.,1,undefined,filler,There are only four stars.,False,,,2,There are four ticks.,False,False,,226,"[0, 1]","[2, 1, 9]","[0, 1]",0,0,667
"[6, 4, 9]",,,exh-only,0,"[0, 0, 0]",0,5.467183333333334,0,"[0, 0, 0]","[8, 7, 0]",3,Some of the symbols are circles.,1,undefined,response,Some of the symbols are stars.,False,,,0,Some of the symbols are notes.,True,False,,205,"[1, 0]","[7, 3, 0]","[0, 1]",0,0,646
"[5, 0, 8]",,,exh-only,0,"[0, 0, 0]",0,5.467183333333334,1,"[0, 0, 0]","[2, 3, 9]",3,There are four circles.,1,undefined,response,There are four squares.,False,,,1,There are four ticks.,True,False,,229,"[1, 0]","[7, 5, 3]","[0, 1]",0,0,682
"[5, 0, 5]",,,exh-only,1,"[3, 0, 0]",0,5.467183333333334,1,"[8, 0, 0]","[7, 5, 3]",3,6 + 3 = ?,0,undefined,filler,0 + 5 = ?,False,,,3,There are four circles.,False,True,,240,"[0, 1]","[9, 6, 3]","[1, 0]",0,0,676
"[1, 9, 6]",,,exh-only,0,"[0, 0, 0]",0,5.467183333333334,0,"[0, 0, 0]","[5, 0, 3]",3,Some of the symbols are notes.,1,undefined,filler,Some of the symbols are clubs.,False,,,1,Some of the symbols are squares.,True,False,,676,"[1, 0]","[8, 2, 3]","[0, 1]",1,0,1123
"[9, 9, 0]",,,exh-only,1,"[2, 0, 0]",1,5.467183333333334,1,"[6, 0, 0]","[7, 9, 8]",3,3 + 4 = ?,0,undefined,filler,9 + 0 = ?,False,,,3,There are four circles.,True,False,,215,"[0, 1]","[7, 3, 4]","[1, 0]",1,1,666
"[1, 5, 8]",,,exh-only,1,"[0, 0, 0]",1,5.467183333333334,0,"[0, 0, 0]","[5, 7, 0]",3,Some of the symbols are ticks.,0,undefined,filler,Some of the symbols are clubs.,False,,,1,Some of the symbols are squares.,True,False,,225,"[0, 1]","[2, 4, 5]","[1, 0]",1,1,675
"[2, 3, 6]",,,exh-only,1,"[0, 0, 0]",1,5.467183333333334,1,"[0, 0, 0]","[4, 5, 8]",3,There are only four notes.,1,undefined,response,There are only four ticks.,True,,,2,There are four hearts.,True,True,,226,"[0, 1]","[8, 3, 9]","[0, 1]",1,1,667
"[2, 3, 4]",,,exh-only,0,"[0, 0, 0]",0,5.467183333333334,2,"[0, 0, 0]","[1, 4, 5]",3,There is only a heart.,0,undefined,response,There is only a tick.,False,,,2,There is a club.,False,True,,230,"[1, 0]","[4, 9, 0]","[1, 0]",0,1,725
"[2, 0, 2]",,,exh-only,1,"[7, 0, 0]",0,5.467183333333334,0,"[5, 0, 0]","[8, 6, 3]",3,2 + 0 = ?,1,undefined,response,0 + 2 = ?,False,,,3,Some of the symbols are notes.,False,False,,378,"[0, 1]","[2, 2, 0]","[0, 1]",0,0,822
"[6, 0, 3]",,,exh-only,1,"[0, 0, 0]",0,5.467183333333334,1,"[0, 0, 0]","[9, 8, 1]",3,There are only four squares.,1,undefined,filler,There are only four stars.,False,,,2,There are four triangles.,False,False,,240,"[0, 1]","[5, 3, 4]","[0, 1]",0,0,721
"[1, 7, 3]",,,exh-only,0,"[0, 0, 0]",0,5.467183333333334,2,"[0, 0, 0]","[9, 6, 8]",3,There is a club.,1,undefined,filler,There is a club.,False,,,0,There is a triangle.,True,False,,225,"[1, 0]","[1, 4, 6]","[0, 1]",0,0,746
"[8, 2, 3]",,,exh-only,1,"[0, 0, 0]",0,5.467183333333334,1,"[0, 0, 0]","[4, 6, 2]",3,There are four triangles.,0,undefined,filler,There are four notes.,False,,,0,There are four hearts.,False,True,,424,"[0, 1]","[9, 0, 3]","[1, 0]",0,0,1112
"[12, 6, 6]",,,exh-only,0,"[4, 0, 0]",1,5.467183333333334,0,"[6, 0, 0]","[3, 4, 8]",3,3 + 3 = ?,0,undefined,filler,6 + 6 = ?,False,,,3,Some of the symbols are spades.,True,False,,271,"[1, 0]","[6, 3, 3]","[1, 0]",1,0,1016
"[0, 7, 3]",,,exh-only,1,"[0, 0, 0]",1,5.467183333333334,2,"[0, 0, 0]","[0, 2, 7]",3,There is a diamond.,0,undefined,response,There is a diamond.,False,,,1,There is a diamond.,True,False,,255,"[0, 1]","[0, 1, 3]","[1, 0]",1,1,738
"[2, 4, 6]",,,exh-only,0,"[0, 0, 0]",1,5.467183333333334,0,"[0, 0, 0]","[5, 7, 8]",3,Some of the symbols are clubs.,0,undefined,filler,Some of the symbols are ticks.,False,,,0,Some of the symbols are squares.,False,False,,226,"[1, 0]","[1, 6, 0]","[1, 0]",1,1,804
"[7, 5, 2]",,,exh-only,0,"[2, 0, 0]",1,5.467183333333334,0,"[4, 0, 0]","[4, 2, 9]",3,1 + 1 = ?,0,undefined,filler,5 + 2 = ?,False,,,3,Some of the symbols are hearts.,False,False,,237,"[1, 0]","[2, 1, 1]","[1, 0]",1,1,749
"[1, 6, 0]",,,exh-only,0,"[0, 0, 0]",1,5.467183333333334,0,"[0, 0, 0]","[3, 4, 6]",3,Some of the symbols are hearts.,0,undefined,filler,Some of the symbols are clubs.,False,,,0,Some of the symbols are spades.,False,False,,209,"[1, 0]","[4, 5, 6]","[1, 0]",1,1,804
"[5, 7, 2]",,,exh-only,0,"[0, 0, 0]",0,5.467183333333334,0,"[0, 0, 0]","[8, 2, 5]",3,Some of the symbols are clubs.,0,undefined,response,Some of the symbols are squares.,False,,,0,Some of the symbols are notes.,False,True,,222,"[1, 0]","[1, 2, 6]","[1, 0]",0,1,793
"[8, 3, 6]",,,exh-only,1,"[0, 0, 0]",0,5.467183333333334,1,"[0, 0, 0]","[9, 7, 6]",3,There are four diamonds.,1,undefined,response,There are four notes.,False,,,1,There are four triangles.,True,False,,218,"[0, 1]","[0, 1, 2]","[0, 1]",0,1,746
"[7, 1, 2]",,,exh-only,1,"[0, 0, 0]",0,5.467183333333334,1,"[0, 0, 0]","[0, 7, 4]",3,There are four clubs.,0,undefined,response,There are four circles.,False,,,0,There are four diamonds.,False,True,,238,"[0, 1]","[1, 9, 7]","[1, 0]",0,0,740
"[4, 9, 5]",,,exh-only,1,"[0, 0, 0]",0,5.467183333333334,1,"[0, 0, 0]","[2, 3, 1]",3,There are four squares.,0,undefined,response,There are four hearts.,False,,,0,There are four ticks.,False,True,,204,"[0, 1]","[5, 3, 6]","[1, 0]",0,0,681
"[12, 7, 5]",,,exh-only,1,"[1, 0, 0]",0,5.467183333333334,2,"[6, 0, 0]","[4, 8, 6]",3,5 + 9 = ?,0,undefined,response,7 + 5 = ?,False,,,3,There is a heart.,False,True,,266,"[0, 1]","[14, 5, 9]","[1, 0]",0,0,889
"[2, 5, 8]",,,exh-only,1,"[0, 0, 0]",0,5.467183333333334,2,"[0, 0, 0]","[6, 4, 8]",3,There is a square.,0,undefined,response,There is a tick.,False,,,0,There is a star.,False,True,,672,"[0, 1]","[5, 3, 0]","[1, 0]",1,0,1276
"[0, 6, 9]",,,exh-only,0,"[0, 0, 0]",1,5.467183333333334,2,"[0, 0, 0]","[9, 7, 5]",3,There is only a diamond.,1,undefined,filler,There is only a diamond.,False,,,2,There is a triangle.,False,True,,218,"[1, 0]","[0, 9, 1]","[0, 1]",1,1,846
"[8, 5, 4]",,,exh-only,0,"[0, 0, 0]",1,5.467183333333334,0,"[0, 0, 0]","[8, 4, 5]",3,Some of the symbols are spades.,0,undefined,response,Some of the symbols are notes.,False,,,1,Some of the symbols are notes.,False,False,,228,"[1, 0]","[3, 9, 1]","[1, 0]",1,1,674
"[1, 9, 4]",,,exh-only,1,"[0, 0, 0]",1,5.467183333333334,2,"[0, 0, 0]","[2, 0, 3]",3,There is only a square.,1,undefined,filler,There is only a club.,True,,,2,There is a tick.,True,True,,245,"[0, 1]","[5, 3, 8]","[0, 1]",1,1,719
"[3, 4, 9]",,,exh-only,1,"[0, 0, 0]",1,5.467183333333334,2,"[0, 0, 0]","[5, 3, 6]",3,There is a note.,0,undefined,filler,There is a spade.,False,,,0,There is a square.,True,False,,209,"[0, 1]","[8, 0, 4]","[1, 0]",1,1,645
"[4, 2, 7]",,,exh-only,0,"[0, 0, 0]",1,5.467183333333334,0,"[0, 0, 0]","[6, 4, 9]",3,Only some of the symbols are squares.,1,undefined,filler,Only some of the symbols are hearts.,False,,,2,Some of the symbols are stars.,False,True,,269,"[1, 0]","[5, 6, 9]","[0, 1]",0,1,957
"[7, 8, 3]",,,exh-only,1,"[0, 0, 0]",0,5.467183333333334,1,"[0, 0, 0]","[9, 3, 5]",3,There are four squares.,1,undefined,filler,There are four circles.,False,,,1,There are four triangles.,False,False,,189,"[0, 1]","[5, 4, 0]","[0, 1]",0,0,610
"[1, 7, 4]",,,exh-only,1,"[0, 0, 0]",0,5.467183333333334,2,"[0, 0, 0]","[2, 8, 4]",3,There is a star.,0,undefined,filler,There is a club.,False,,,1,There is a tick.,False,True,,209,"[0, 1]","[6, 5, 4]","[1, 0]",0,0,601
"[5, 9, 4]",,,exh-only,0,"[0, 0, 0]",0,5.467183333333334,0,"[0, 0, 0]","[9, 6, 0]",3,Some of the symbols are squares.,0,undefined,response,Some of the symbols are squares.,True,,,1,Some of the symbols are triangles.,True,True,,376,"[1, 0]","[5, 4, 8]","[1, 0]",0,0,987
"[13, 5, 8]",,,exh-only,1,"[5, 0, 0]",0,5.467183333333334,2,"[3, 0, 0]","[2, 7, 3]",3,9 + 5 = ?,0,undefined,filler,5 + 8 = ?,False,,,3,There is a tick.,False,True,,205,"[0, 1]","[14, 9, 5]","[1, 0]",0,0,610
"[5, 8, 6]",,,exh-only,0,"[0, 0, 0]",0,5.467183333333334,2,"[0, 0, 0]","[7, 6, 3]",3,There is a triangle.,0,undefined,filler,There is a square.,True,,,1,There is a circle.,True,True,,489,"[1, 0]","[9, 3, 0]","[1, 0]",0,0,917
"[4, 4, 0]",,,exh-only,0,"[8, 0, 0]",1,5.467183333333334,1,"[5, 0, 0]","[4, 2, 9]",3,9 + 3 = ?,1,undefined,response,4 + 0 = ?,False,,,3,There are four hearts.,False,True,,149,"[1, 0]","[12, 9, 3]","[0, 1]",1,1,586
"[2, 7, 1]",,,exh-only,1,"[0, 0, 0]",1,5.467183333333334,1,"[0, 0, 0]","[3, 7, 6]",3,There are four ticks.,1,undefined,filler,There are four ticks.,True,,,1,There are four spades.,True,True,,200,"[0, 1]","[2, 3, 8]","[0, 1]",1,1,772
"[8, 4, 0]",,,exh-only,1,"[0, 0, 0]",0,5.467183333333334,1,"[0, 0, 0]","[2, 4, 3]",3,There are four ticks.,0,undefined,filler,There are four notes.,False,,,1,There are four ticks.,False,True,,242,"[0, 1]","[2, 6, 8]","[1, 0]",0,0,930
"[9, 5, 2]",,,exh-only,0,"[0, 0, 0]",0,5.467183333333334,2,"[0, 0, 0]","[9, 1, 3]",3,There is a circle.,1,undefined,filler,There is a triangle.,False,,,1,There is a triangle.,True,False,,197,"[1, 0]","[7, 5, 3]","[0, 1]",0,0,815
"[6, 7, 0]",,,exh-only,0,"[0, 0, 0]",0,5.467183333333334,2,"[0, 0, 0]","[6, 0, 9]",3,There is a square.,0,undefined,filler,There is a star.,True,,,0,There is a star.,True,True,,213,"[1, 0]","[5, 1, 6]","[1, 0]",0,0,814
"[5, 0, 8]",,,exh-only,0,"[0, 0, 0]",0,5.467183333333334,0,"[0, 0, 0]","[4, 2, 8]",3,Only some of the symbols are spades.,0,undefined,response,Only some of the symbols are squares.,True,,,2,Some of the symbols are hearts.,True,True,,223,"[1, 0]","[3, 7, 0]","[1, 0]",0,0,638
"[8, 9, 0]",,,exh-only,0,"[0, 0, 0]",0,5.467183333333334,2,"[0, 0, 0]","[1, 0, 8]",3,There is a triangle.,1,undefined,response,There is a note.,False,,,0,There is a club.,True,False,,375,"[1, 0]","[9, 2, 6]","[0, 1]",0,0,830
"[7, 9, 3]",,,exh-only,0,"[0, 0, 0]",1,5.467183333333334,0,"[0, 0, 0]","[8, 1, 9]",3,Some of the symbols are spades.,1,undefined,response,Some of the symbols are circles.,False,,,1,Some of the symbols are notes.,False,True,,388,"[1, 0]","[3, 0, 6]","[0, 1]",1,1,1339
"[7, 9, 0]",,,exh-only,0,"[0, 0, 0]",0,5.467183333333334,2,"[0, 0, 0]","[3, 4, 0]",3,There is only a tick.,1,undefined,response,There is only a circle.,False,,,2,There is a spade.,False,False,,259,"[1, 0]","[2, 7, 6]","[0, 1]",0,1,980
"[0, 9, 5]",,,exh-only,1,"[0, 0, 0]",0,5.467183333333334,1,"[0, 0, 0]","[1, 5, 3]",3,There are four stars.,0,undefined,response,There are four diamonds.,True,,,0,There are four clubs.,True,True,,213,"[0, 1]","[6, 2, 5]","[1, 0]",0,1,746
"[6, 7, 0]",,,exh-only,0,"[0, 0, 0]",1,5.467183333333334,2,"[0, 0, 0]","[2, 8, 0]",3,There is only a note.,0,undefined,response,There is only a star.,False,,,2,There is a tick.,False,False,,347,"[1, 0]","[8, 1, 4]","[1, 0]",0,1,1213
"[7, 4, 9]",,,exh-only,0,"[0, 0, 0]",1,5.467183333333334,0,"[0, 0, 0]","[1, 4, 7]",3,Only some of the symbols are spades.,0,undefined,filler,Only some of the symbols are circles.,False,,,2,Some of the symbols are clubs.,False,False,,254,"[1, 0]","[3, 1, 7]","[1, 0]",1,1,846
"[4, 4, 0]",,,exh-only,0,"[0, 0, 0]",1,5.467183333333334,1,"[3, 0, 0]","[5, 6, 1]",3,1 + 4 = ?,1,undefined,filler,4 + 0 = ?,False,,,3,There are four squares.,False,True,,51062,"[1, 0]","[5, 1, 4]","[0, 1]",1,1,51604
"[9, 7, 2]",,,exh-only,0,"[5, 0, 0]",1,5.467183333333334,1,"[5, 0, 0]","[0, 9, 4]",3,5 + 8 = ?,0,undefined,response,7 + 2 = ?,False,,,3,There are four diamonds.,False,False,,222,"[1, 0]","[13, 5, 8]","[1, 0]",1,1,653
"[6, 7, 3]",,,exh-only,0,"[0, 0, 0]",0,5.467183333333334,1,"[0, 0, 0]","[6, 9, 0]",3,There are four circles.,1,undefined,response,There are four stars.,False,,,0,There are four stars.,False,False,,233,"[1, 0]","[7, 2, 8]","[0, 1]",0,1,657
"[3, 0, 2]",,,exh-only,1,"[0, 0, 0]",0,5.467183333333334,1,"[0, 0, 0]","[7, 5, 6]",3,There are only four ticks.,0,undefined,filler,There are only four spades.,False,,,2,There are four circles.,False,True,,523,"[0, 1]","[2, 7, 1]","[1, 0]",1,0,1115
"[7, 5, 1]",,,exh-only,0,"[0, 0, 0]",0,5.467183333333334,2,"[0, 0, 0]","[9, 0, 8]",3,There is only a club.,0,undefined,response,There is only a circle.,True,,,2,There is a triangle.,True,True,,978,"[1, 0]","[1, 0, 5]","[1, 0]",0,0,1582
"[2, 9, 4]",,,exh-only,1,"[0, 0, 0]",0,5.467183333333334,1,"[0, 0, 0]","[3, 2, 5]",3,There are only four squares.,1,undefined,response,There are only four ticks.,False,,,2,There are four spades.,True,False,,264,"[0, 1]","[5, 2, 0]","[0, 1]",1,1,1037
"[3, 6, 9]",,,exh-only,0,"[0, 0, 0]",1,5.467183333333334,2,"[0, 0, 0]","[0, 5, 9]",3,There is only a heart.,1,undefined,filler,There is only a spade.,True,,,2,There is a diamond.,True,True,,233,"[1, 0]","[4, 9, 1]","[0, 1]",1,0,674
"[1, 2, 6]",,,exh-only,0,"[0, 0, 0]",0,5.467183333333334,0,"[0, 0, 0]","[2, 5, 7]",3,Some of the symbols are stars.,1,undefined,response,Some of the symbols are clubs.,False,,,1,Some of the symbols are ticks.,False,False,,198,"[1, 0]","[6, 1, 0]","[0, 1]",0,1,672
"[0, 9, 2]",,,exh-only,1,"[0, 0, 0]",0,5.467183333333334,2,"[0, 0, 0]","[2, 7, 3]",3,There is a note.,0,undefined,response,There is a diamond.,False,,,0,There is a tick.,False,True,,210,"[0, 1]","[8, 5, 2]","[1, 0]",0,0,998
"[15, 8, 7]",,,exh-only,1,"[4, 0, 0]",0,5.467183333333334,0,"[4, 0, 0]","[4, 3, 2]",3,7 + 7 = ?,0,undefined,response,8 + 7 = ?,False,,,3,Some of the symbols are hearts.,False,True,,201,"[0, 1]","[14, 7, 7]","[1, 0]",0,0,637
"[6, 0, 5]",,,exh-only,1,"[0, 0, 0]",1,5.467183333333334,0,"[0, 0, 0]","[5, 6, 1]",3,Only some of the symbols are triangles.,1,undefined,filler,Only some of the symbols are stars.,True,,,2,Some of the symbols are squares.,True,True,,229,"[0, 1]","[9, 4, 3]","[0, 1]",1,1,1040
"[7, 0, 6]",,,exh-only,1,"[0, 0, 0]",1,5.467183333333334,1,"[0, 0, 0]","[6, 3, 7]",3,There are only four squares.,1,undefined,response,There are only four circles.,True,,,2,There are four stars.,True,True,,234,"[0, 1]","[5, 8, 1]","[0, 1]",1,1,680
"[5, 2, 0]",,,exh-only,1,"[0, 0, 0]",1,5.467183333333334,0,"[0, 0, 0]","[2, 5, 6]",3,Some of the symbols are ticks.,1,undefined,filler,Some of the symbols are squares.,True,,,0,Some of the symbols are ticks.,True,True,,223,"[0, 1]","[2, 9, 5]","[0, 1]",1,1,712
"[2, 1, 1]",,,exh-only,1,"[5, 0, 0]",1,5.467183333333334,2,"[0, 0, 0]","[5, 0, 2]",3,0 + 4 = ?,1,undefined,response,1 + 1 = ?,True,,,3,There is a square.,True,True,,233,"[0, 1]","[4, 0, 4]","[0, 1]",1,1,708
"[5, 4, 1]",,,exh-only,1,"[2, 0, 0]",0,5.467183333333334,0,"[6, 0, 0]","[3, 9, 6]",3,9 + 8 = ?,1,undefined,filler,4 + 1 = ?,False,,,3,Some of the symbols are spades.,False,False,,247,"[0, 1]","[17, 9, 8]","[0, 1]",0,0,1228
"[4, 3, 1]",,,exh-only,0,"[0, 0, 0]",0,5.467183333333334,0,"[0, 0, 0]","[6, 1, 5]",3,Some of the symbols are clubs.,1,undefined,response,Some of the symbols are hearts.,False,,,0,Some of the symbols are stars.,True,False,,366,"[1, 0]","[1, 9, 3]","[0, 1]",0,0,1137
"[2, 9, 7]",,,exh-only,0,"[0, 0, 0]",0,5.467183333333334,2,"[0, 0, 0]","[7, 8, 0]",3,There is a note.,1,undefined,filler,There is a tick.,False,,,1,There is a circle.,True,False,,1013,"[1, 0]","[8, 1, 7]","[0, 1]",0,0,1969
"[2, 4, 8]",,,exh-only,1,"[0, 0, 0]",0,5.467183333333334,0,"[0, 0, 0]","[5, 3, 1]",3,Some of the symbols are hearts.,1,undefined,filler,Some of the symbols are ticks.,False,,,1,Some of the symbols are squares.,False,False,,244,"[0, 1]","[4, 2, 8]","[0, 1]",0,0,823
"[0, 7, 4]",,,exh-only,1,"[0, 0, 0]",0,5.467183333333334,1,"[0, 0, 0]","[6, 7, 1]",3,There are four diamonds.,1,undefined,filler,There are four diamonds.,False,,,0,There are four stars.,False,False,,280,"[0, 1]","[0, 7, 8]","[0, 1]",0,0,780
"[0, 8, 9]",,,exh-only,0,"[0, 0, 0]",0,5.467183333333334,1,"[0, 0, 0]","[4, 6, 2]",3,There are four notes.,1,undefined,filler,There are four diamonds.,False,,,1,There are four hearts.,True,False,,238,"[1, 0]","[8, 6, 1]","[0, 1]",0,0,702
"[3, 0, 3]",,,exh-only,0,"[4, 0, 0]",0,5.467183333333334,1,"[0, 0, 0]","[6, 5, 1]",3,3 + 3 = ?,0,undefined,response,0 + 3 = ?,True,,,3,There are four stars.,True,True,,232,"[1, 0]","[6, 3, 3]","[1, 0]",0,0,750
"[10, 7, 3]",,,exh-only,0,"[0, 0, 0]",0,5.467183333333334,0,"[4, 0, 0]","[5, 1, 8]",3,6 + 8 = ?,0,undefined,filler,7 + 3 = ?,True,,,3,Some of the symbols are squares.,True,True,,562,"[1, 0]","[14, 6, 8]","[1, 0]",0,0,1086
"[11, 3, 8]",,,exh-only,1,"[0, 0, 0]",0,5.467183333333334,1,"[9, 0, 0]","[2, 0, 6]",3,5 + 6 = ?,1,undefined,filler,3 + 8 = ?,False,,,3,There are four ticks.,False,False,,264,"[0, 1]","[11, 5, 6]","[0, 1]",0,0,844
"[6, 3, 2]",,,exh-only,0,"[0, 0, 0]",0,5.467183333333334,0,"[0, 0, 0]","[9, 6, 4]",3,Some of the symbols are ticks.,0,undefined,response,Some of the symbols are stars.,True,,,0,Some of the symbols are triangles.,True,True,,261,"[1, 0]","[2, 5, 9]","[1, 0]",0,0,838
"[1, 2, 0]",,,exh-only,0,"[0, 0, 0]",0,5.467183333333334,1,"[0, 0, 0]","[2, 6, 4]",3,There are four ticks.,0,undefined,filler,There are four clubs.,True,,,0,There are four ticks.,True,True,,252,"[1, 0]","[2, 5, 9]","[1, 0]",0,0,744
"[6, 4, 7]",,,exh-only,1,"[0, 0, 0]",0,5.467183333333334,0,"[0, 0, 0]","[6, 9, 8]",3,Only some of the symbols are triangles.,0,undefined,response,Only some of the symbols are stars.,False,,,2,Some of the symbols are stars.,False,True,,266,"[0, 1]","[9, 5, 7]","[1, 0]",0,0,1117
,1,,,,,,12.133116666666666,,,,4,,,undefined,,,,"[0, 'Jessica']",Jessica,,,,,bot_check,,,,,,,
"[2, 1, 4]",,,exh-only,1,"[0, 0, 0]",0,12.133116666666666,0,"[0, 0, 0]","[9, 7, 1]",4,Only some of the symbols are spades.,0,undefined,response,Only some of the symbols are ticks.,True,,,2,Some of the symbols are triangles.,True,True,,3893,"[0, 1]","[3, 0, 5]","[1, 0]",1,1,17749
"[10, 6, 4]",,,exh-only,1,"[1, 0, 0]",0,12.133116666666666,0,"[5, 0, 0]","[2, 4, 6]",4,6 + 0 = ?,1,undefined,response,6 + 4 = ?,False,,,3,Some of the symbols are ticks.,True,False,,4215,"[0, 1]","[6, 6, 0]","[0, 1]",1,1,10759
"[5, 6, 4]",,,exh-only,0,"[0, 0, 0]",0,12.133116666666666,1,"[0, 0, 0]","[4, 8, 7]",4,There are four ticks.,0,undefined,filler,There are four squares.,True,,,0,There are four hearts.,True,True,,3311,"[1, 0]","[2, 0, 5]","[1, 0]",1,0,13632
"[1, 2, 5]",,,exh-only,1,"[0, 0, 0]",0,12.133116666666666,2,"[0, 0, 0]","[9, 1, 6]",4,There is only a tick.,0,undefined,filler,There is only a club.,True,,,2,There is a triangle.,True,True,,2574,"[0, 1]","[2, 8, 1]","[1, 0]",1,1,9236
"[7, 9, 5]",,,exh-only,0,"[0, 0, 0]",1,12.133116666666666,1,"[0, 0, 0]","[6, 5, 7]",4,There are four squares.,1,undefined,response,There are four circles.,True,,,0,There are four stars.,True,True,,1855,"[1, 0]","[5, 9, 3]","[0, 1]",0,0,4751
"[0, 1, 3]",,,exh-only,1,"[0, 0, 0]",1,12.133116666666666,0,"[0, 0, 0]","[9, 4, 1]",4,Only some of the symbols are clubs.,1,undefined,filler,Only some of the symbols are diamonds.,True,,,2,Some of the symbols are triangles.,True,True,,3503,"[0, 1]","[1, 4, 6]","[0, 1]",1,1,9336
"[4, 0, 4]",,,exh-only,1,"[2, 0, 0]",0,12.133116666666666,1,"[5, 0, 0]","[4, 3, 9]",4,3 + 1 = ?,0,undefined,response,0 + 4 = ?,True,,,3,There are four hearts.,True,True,,3663,"[0, 1]","[4, 3, 1]","[1, 0]",0,1,7200
"[8, 3, 4]",,,exh-only,1,"[0, 0, 0]",0,12.133116666666666,1,"[0, 0, 0]","[8, 2, 3]",4,There are four diamonds.,0,undefined,response,There are four notes.,True,,,0,There are four notes.,True,True,,1983,"[0, 1]","[0, 9, 4]","[1, 0]",0,1,5272
"[2, 6, 5]",,,exh-only,1,"[0, 0, 0]",1,12.133116666666666,1,"[0, 0, 0]","[4, 2, 9]",4,There are four diamonds.,1,undefined,response,There are four ticks.,True,,,0,There are four hearts.,True,True,,1159,"[0, 1]","[0, 3, 9]","[0, 1]",0,1,3239
"[2, 9, 7]",,,exh-only,0,"[0, 0, 0]",1,12.133116666666666,0,"[0, 0, 0]","[1, 5, 7]",4,Some of the symbols are triangles.,1,undefined,filler,Some of the symbols are ticks.,True,,,1,Some of the symbols are clubs.,True,True,,1447,"[1, 0]","[9, 8, 2]","[0, 1]",1,0,5640
"[0, 4, 3]",,,exh-only,0,"[0, 0, 0]",0,12.133116666666666,2,"[0, 0, 0]","[8, 7, 6]",4,There is only a heart.,0,undefined,filler,There is only a diamond.,True,,,2,There is a note.,True,True,,2608,"[1, 0]","[4, 9, 1]","[1, 0]",1,0,6400
"[9, 4, 2]",,,exh-only,1,"[0, 0, 0]",1,12.133116666666666,0,"[0, 0, 0]","[3, 6, 8]",4,Some of the symbols are notes.,1,undefined,response,Some of the symbols are triangles.,True,,,1,Some of the symbols are spades.,True,True,,3759,"[0, 1]","[8, 3, 2]","[0, 1]",1,1,8999
"[3, 0, 5]",,,exh-only,1,"[0, 0, 0]",1,12.133116666666666,0,"[0, 0, 0]","[0, 8, 7]",4,Some of the symbols are clubs.,1,undefined,response,Some of the symbols are spades.,True,,,0,Some of the symbols are diamonds.,True,True,,1679,"[0, 1]","[1, 5, 8]","[0, 1]",0,1,13616
"[3, 1, 8]",,,exh-only,1,"[0, 0, 0]",1,12.133116666666666,1,"[0, 0, 0]","[7, 3, 1]",4,There are four circles.,1,undefined,filler,There are four spades.,True,,,1,There are four circles.,True,True,,1432,"[0, 1]","[7, 5, 6]","[0, 1]",1,1,5280
"[11, 7, 4]",,,exh-only,1,"[9, 0, 0]",1,12.133116666666666,2,"[9, 0, 0]","[9, 7, 8]",4,6 + 4 = ?,0,undefined,response,7 + 4 = ?,False,,,3,There is a triangle.,False,False,,3903,"[0, 1]","[10, 6, 4]","[1, 0]",0,0,7576
"[9, 1, 8]",,,exh-only,1,"[3, 0, 0]",1,12.133116666666666,2,"[1, 0, 0]","[7, 6, 2]",4,4 + 3 = ?,0,undefined,filler,1 + 8 = ?,False,,,3,There is a circle.,False,False,,1639,"[0, 1]","[7, 4, 3]","[1, 0]",1,0,4272
"[5, 4, 1]",,,exh-only,0,"[0, 0, 0]",0,12.133116666666666,1,"[0, 0, 0]","[7, 5, 0]",4,There are four squares.,0,undefined,response,There are four squares.,True,,,1,There are four circles.,True,True,,8271,"[1, 0]","[5, 7, 2]","[1, 0]",1,0,13246
"[3, 8, 4]",,,exh-only,0,"[0, 0, 0]",1,12.133116666666666,2,"[0, 0, 0]","[3, 5, 7]",4,There is a heart.,1,undefined,response,There is a spade.,True,,,1,There is a spade.,True,True,,2583,"[1, 0]","[4, 2, 8]","[0, 1]",0,0,6496
"[1, 5, 6]",,,exh-only,0,"[0, 0, 0]",1,12.133116666666666,0,"[0, 0, 0]","[4, 1, 6]",4,Only some of the symbols are notes.,1,undefined,filler,Only some of the symbols are clubs.,True,,,2,Some of the symbols are hearts.,True,True,,2334,"[1, 0]","[8, 6, 5]","[0, 1]",1,0,10047
"[5, 4, 8]",,,exh-only,1,"[0, 0, 0]",1,12.133116666666666,2,"[0, 0, 0]","[3, 8, 5]",4,There is a diamond.,1,undefined,response,There is a square.,True,,,1,There is a spade.,True,True,,5431,"[0, 1]","[0, 9, 7]","[0, 1]",1,1,7799
"[5, 2, 3]",,,exh-only,0,"[0, 0, 0]",0,12.133116666666666,0,"[6, 0, 0]","[4, 5, 7]",4,4 + 9 = ?,1,undefined,response,2 + 3 = ?,False,,,3,Some of the symbols are hearts.,False,False,,3567,"[1, 0]","[13, 4, 9]","[0, 1]",1,1,6640
"[7, 9, 2]",,,exh-only,0,"[0, 0, 0]",1,12.133116666666666,0,"[0, 0, 0]","[1, 4, 7]",4,Some of the symbols are diamonds.,1,undefined,response,Some of the symbols are circles.,True,,,1,Some of the symbols are clubs.,True,True,,1935,"[1, 0]","[0, 9, 6]","[0, 1]",1,0,5783
"[5, 6, 9]",,,exh-only,0,"[0, 0, 0]",1,12.133116666666666,1,"[0, 0, 0]","[5, 3, 2]",4,There are four squares.,1,undefined,response,There are four squares.,True,,,1,There are four squares.,True,True,,2678,"[1, 0]","[5, 7, 3]","[0, 1]",1,0,4632
"[5, 1, 4]",,,exh-only,0,"[0, 0, 0]",0,12.133116666666666,1,"[0, 0, 0]","[3, 6, 0]",4,There are four circles.,0,undefined,filler,There are four squares.,True,,,0,There are four spades.,True,True,,1783,"[1, 0]","[7, 5, 8]","[1, 0]",1,0,4832
"[4, 5, 9]",,,exh-only,0,"[0, 0, 0]",0,12.133116666666666,0,"[0, 0, 0]","[3, 6, 2]",4,Some of the symbols are notes.,0,undefined,response,Some of the symbols are hearts.,True,,,1,Some of the symbols are spades.,True,True,,2773,"[1, 0]","[8, 0, 9]","[1, 0]",1,0,6614
"[9, 3, 6]",,,exh-only,0,"[1, 0, 0]",1,12.133116666666666,0,"[3, 0, 0]","[3, 0, 9]",4,6 + 8 = ?,0,undefined,filler,3 + 6 = ?,False,,,3,Some of the symbols are spades.,True,False,,1967,"[1, 0]","[14, 6, 8]","[1, 0]",1,0,5272
"[8, 5, 3]",,,exh-only,1,"[9, 0, 0]",0,12.133116666666666,1,"[3, 0, 0]","[6, 7, 0]",4,8 + 6 = ?,1,undefined,response,5 + 3 = ?,False,,,3,There are four stars.,True,False,,1279,"[0, 1]","[14, 8, 6]","[0, 1]",1,1,4767
"[5, 4, 0]",,,exh-only,0,"[0, 0, 0]",0,12.133116666666666,1,"[0, 0, 0]","[3, 5, 1]",4,There are only four ticks.,0,undefined,filler,There are only four squares.,True,,,2,There are four spades.,True,True,,2367,"[1, 0]","[2, 5, 0]","[1, 0]",1,0,5816
