Answer.time_in_minutes,image,workerid,primeType,pTChoice,response_rt,goodPTChoice,goodPOChoice,pTwrongAnswer,responseSymbols,audio,correctPTChoice,response,responseSentence,block_rt,pOSymbols,responseChoice,trial_type,primeOShuffle,correctPChoices,btwncondition,pOChoice,pTSentence,slide_number,pTSymbols,slide_type,correctPOChoice,pOSentence,primeStrength,pOwrongAnswer,primeTShuffle,Answer.condition
3.4577,Margaret,0,,,,,,,,,,"[0, 'Margaret']",,,,,,,,,,,1,,bot_check,,,,,,undefined
3.4577,,0,1,1,1877,1,1,"[0, 0, 0]","[7, 6, 1]",,True,,There are four circles.,6688,"[1, 3, 4]",1,filler,"[0, 1]",False,exh-clausal,0,"There are four clubs, but there are no more than four clubs.",,"[1, 6, 0]",,False,"There are four clubs, but there are no more than four clubs.",2,"[0, 0, 0]","[0, 1]",undefined
3.4577,,0,2,0,4797,0,1,"[3, 0, 0]","[7, 4, 8]",,True,,There is a circle.,10408,"[15, 6, 9]",1,filler,"[0, 1]",True,exh-clausal,1,2 + 3 = ?,,"[5, 2, 3]",,True,6 + 9 = ?,3,"[1, 0, 0]","[1, 0]",undefined
3.4577,,0,1,0,1320,1,0,"[0, 0, 0]","[0, 8, 7]",,False,,There are four diamonds.,5297,"[8, 1, 0]",0,response,"[1, 0]",False,exh-clausal,0,There are four stars.,,"[6, 2, 3]",,True,There are four notes.,0,"[0, 0, 0]","[0, 1]",undefined
3.4577,,0,0,0,3828,0,1,"[2, 0, 0]","[5, 7, 6]",,True,,Some of the symbols are squares.,9334,"[6, 4, 2]",0,filler,"[0, 1]",False,exh-clausal,0,8 + 1 = ?,,"[9, 8, 1]",,False,4 + 2 = ?,3,"[6, 0, 0]","[1, 0]",undefined
3.4577,,0,0,0,2045,0,1,"[0, 0, 0]","[1, 4, 6]",,True,,Some of the symbols are clubs.,6377,"[0, 9, 2]",0,response,"[0, 1]",False,exh-clausal,0,Some of the symbols are circles.,,"[7, 0, 6]",,False,Some of the symbols are diamonds.,1,"[0, 0, 0]","[1, 0]",undefined
3.4577,,0,2,1,2644,1,0,"[0, 0, 0]","[5, 0, 6]",,True,,There is a square.,14487,"[3, 9, 2]",0,response,"[1, 0]",True,exh-clausal,0,There is a triangle.,,"[9, 8, 4]",,True,There is a spade.,0,"[0, 0, 0]","[0, 1]",undefined
3.4577,,0,2,0,216,0,0,"[0, 0, 0]","[5, 1, 6]",,True,,There is a square.,843,"[6, 9, 3]",0,filler,"[1, 0]",True,exh-clausal,0,There is a triangle.,,"[9, 2, 5]",,True,There is a star.,0,"[0, 0, 0]","[1, 0]",undefined
3.4577,,0,2,0,224,1,1,"[0, 0, 0]","[6, 4, 1]",,False,,There is a star.,716,"[7, 0, 5]",0,response,"[0, 1]",False,exh-clausal,0,There is a tick.,,"[2, 8, 9]",,False,There is a circle.,0,"[0, 0, 0]","[0, 1]",undefined
3.4577,,0,0,0,261,0,0,"[0, 0, 0]","[5, 3, 9]",,True,,Some of the symbols are squares.,1722,"[0, 5, 4]",0,response,"[1, 0]",True,exh-clausal,0,"Some of the symbols are hearts, but not all of them are hearts.",,"[4, 0, 2]",,True,"Some of the symbols are diamonds, but not all of them are diamonds.",2,"[0, 0, 0]","[1, 0]",undefined
3.4577,,0,0,0,245,0,0,"[0, 0, 0]","[8, 9, 5]",,True,,Some of the symbols are notes.,738,"[2, 5, 6]",0,response,"[1, 0]",True,exh-clausal,0,"Some of the symbols are spades, but not all of them are spades.",,"[3, 0, 9]",,True,"Some of the symbols are ticks, but not all of them are ticks.",2,"[0, 0, 0]","[1, 0]",undefined
3.4577,,0,2,0,246,0,1,"[0, 0, 0]","[8, 4, 3]",,True,,There is a note.,721,"[7, 5, 9]",0,response,"[0, 1]",False,exh-clausal,0,"There is a triangle, but there is nothing besides a triangle.",,"[9, 3, 0]",,False,"There is a circle, but there is nothing besides a circle.",2,"[0, 0, 0]","[1, 0]",undefined
3.4577,,0,0,0,244,1,0,"[0, 0, 0]","[5, 3, 7]",,False,,Some of the symbols are squares.,760,"[2, 5, 4]",0,filler,"[1, 0]",False,exh-clausal,0,"Some of the symbols are ticks, but not all of them are ticks.",,"[2, 3, 0]",,True,"Some of the symbols are ticks, but not all of them are ticks.",2,"[0, 0, 0]","[0, 1]",undefined
3.4577,,0,2,0,239,1,1,"[0, 0, 0]","[7, 0, 1]",,False,,There is a circle.,707,"[8, 1, 2]",0,filler,"[0, 1]",False,exh-clausal,0,There is a star.,,"[6, 8, 7]",,False,There is a note.,1,"[0, 0, 0]","[0, 1]",undefined
3.4577,,0,0,0,113,1,1,"[2, 0, 0]","[7, 9, 4]",,False,,Some of the symbols are circles.,1217,"[15, 9, 6]",0,filler,"[0, 1]",False,exh-clausal,0,6 + 5 = ?,,"[11, 6, 5]",,False,9 + 6 = ?,3,"[8, 0, 0]","[0, 1]",undefined
3.4577,,0,0,0,202,1,0,"[1, 0, 0]","[2, 8, 7]",,False,,Some of the symbols are ticks.,747,"[9, 4, 5]",0,response,"[1, 0]",False,exh-clausal,0,7 + 4 = ?,,"[11, 7, 4]",,True,4 + 5 = ?,3,"[10, 0, 0]","[0, 1]",undefined
3.4577,,0,0,1,358,1,0,"[0, 0, 0]","[0, 5, 2]",,True,,Some of the symbols are diamonds.,2089,"[1, 9, 2]",1,filler,"[1, 0]",True,exh-clausal,0,Some of the symbols are diamonds.,,"[0, 9, 2]",,True,Some of the symbols are clubs.,1,"[0, 0, 0]","[0, 1]",undefined
3.4577,,0,1,1,224,0,1,"[0, 0, 0]","[6, 5, 2]",,False,,There are four stars.,998,"[2, 3, 7]",1,response,"[0, 1]",False,exh-clausal,1,There are four clubs.,,"[1, 5, 4]",,True,There are four ticks.,1,"[0, 0, 0]","[1, 0]",undefined
3.4577,,0,2,1,230,0,1,"[6, 0, 0]","[1, 8, 0]",,False,,There is a club.,718,"[8, 0, 8]",1,filler,"[0, 1]",False,exh-clausal,1,6 + 7 = ?,,"[13, 6, 7]",,True,0 + 8 = ?,3,"[1, 0, 0]","[1, 0]",undefined
3.4577,,0,0,1,204,0,1,"[0, 0, 0]","[2, 7, 0]",,False,,Some of the symbols are ticks.,742,"[3, 0, 3]",1,filler,"[0, 1]",False,exh-clausal,1,2 + 8 = ?,,"[10, 2, 8]",,True,0 + 3 = ?,3,"[4, 0, 0]","[1, 0]",undefined
3.4577,,0,1,1,207,0,0,"[0, 0, 0]","[1, 3, 7]",,False,,There are four clubs.,1042,"[1, 8, 4]",1,response,"[1, 0]",False,exh-clausal,1,There are four hearts.,,"[4, 6, 7]",,False,There are four clubs.,0,"[0, 0, 0]","[1, 0]",undefined
3.4577,,0,2,1,246,0,0,"[0, 0, 0]","[9, 2, 1]",,False,,There is a triangle.,813,"[1, 8, 9]",1,filler,"[1, 0]",False,exh-clausal,1,"There is a tick, but there is nothing besides a tick.",,"[2, 3, 5]",,False,"There is a club, but there is nothing besides a club.",2,"[0, 0, 0]","[1, 0]",undefined
3.4577,,0,0,1,274,1,0,"[9, 0, 0]","[6, 3, 1]",,True,,Some of the symbols are stars.,787,"[5, 5, 0]",1,filler,"[1, 0]",False,exh-clausal,1,3 + 7 = ?,,"[10, 3, 7]",,False,5 + 0 = ?,3,"[3, 0, 0]","[0, 1]",undefined
3.4577,,0,1,1,223,0,0,"[0, 0, 0]","[4, 2, 5]",,False,,There are four hearts.,758,"[5, 1, 2]",1,response,"[1, 0]",False,exh-clausal,1,"There are four diamonds, but there are no more than four diamonds.",,"[0, 1, 7]",,False,"There are four squares, but there are no more than four squares.",2,"[0, 0, 0]","[1, 0]",undefined
3.4577,,0,1,1,265,0,1,"[6, 0, 0]","[9, 2, 4]",,False,,There are four triangles.,1054,"[8, 1, 7]",1,filler,"[0, 1]",False,exh-clausal,1,9 + 3 = ?,,"[12, 9, 3]",,True,1 + 7 = ?,3,"[2, 0, 0]","[1, 0]",undefined
3.4577,,0,2,1,247,1,0,"[0, 0, 0]","[3, 6, 9]",,True,,There is a spade.,802,"[2, 8, 4]",1,filler,"[1, 0]",False,exh-clausal,1,"There is a spade, but there is nothing besides a spade.",,"[3, 0, 2]",,False,"There is a tick, but there is nothing besides a tick.",2,"[0, 0, 0]","[0, 1]",undefined
3.4577,,0,0,1,269,1,1,"[0, 0, 0]","[5, 7, 0]",,True,,Some of the symbols are squares.,766,"[1, 5, 4]",1,filler,"[0, 1]",True,exh-clausal,1,Some of the symbols are notes.,,"[8, 2, 5]",,True,Some of the symbols are clubs.,0,"[0, 0, 0]","[0, 1]",undefined
3.4577,,0,1,1,217,0,1,"[0, 0, 0]","[7, 0, 1]",,False,,There are four circles.,798,"[8, 0, 2]",1,filler,"[0, 1]",False,exh-clausal,1,There are four squares.,,"[5, 0, 2]",,True,There are four notes.,0,"[0, 0, 0]","[1, 0]",undefined
3.4577,,0,0,1,299,0,0,"[0, 0, 0]","[7, 2, 3]",,False,,Some of the symbols are circles.,3160,"[2, 8, 1]",1,response,"[1, 0]",False,exh-clausal,1,Some of the symbols are ticks.,,"[2, 4, 9]",,False,Some of the symbols are ticks.,1,"[0, 0, 0]","[1, 0]",undefined
3.4577,,0,2,1,258,1,0,"[0, 0, 0]","[7, 1, 0]",,True,,There is a circle.,1793,"[3, 0, 6]",1,filler,"[1, 0]",False,exh-clausal,1,There is a circle.,,"[7, 5, 1]",,False,There is a spade.,1,"[0, 0, 0]","[0, 1]",undefined
3.4577,,0,1,1,242,0,0,"[0, 0, 0]","[6, 7, 5]",,False,,There are four stars.,766,"[3, 0, 5]",1,response,"[1, 0]",False,exh-clausal,1,"There are four notes, but there are no more than four notes.",,"[8, 3, 1]",,False,"There are four spades, but there are no more than four spades.",2,"[0, 0, 0]","[1, 0]",undefined
3.4577,,0,2,1,312,0,1,"[4, 0, 0]","[8, 1, 4]",,False,,There is a note.,2583,"[1, 1, 0]",1,response,"[0, 1]",False,exh-clausal,1,1 + 8 = ?,,"[9, 1, 8]",,True,1 + 0 = ?,3,"[0, 0, 0]","[1, 0]",undefined
3.4577,,0,2,1,342,0,1,"[0, 0, 0]","[6, 1, 7]",,False,,There is a star.,1101,"[5, 9, 0]",1,filler,"[0, 1]",False,exh-clausal,1,There is a heart.,,"[4, 2, 3]",,True,There is a square.,1,"[0, 0, 0]","[1, 0]",undefined
3.4577,,0,0,1,166,1,0,"[0, 0, 0]","[3, 4, 5]",,True,,Some of the symbols are spades.,948,"[1, 0, 9]",1,response,"[1, 0]",False,exh-clausal,1,"Some of the symbols are ticks, but not all of them are ticks.",,"[2, 8, 3]",,False,"Some of the symbols are clubs, but not all of them are clubs.",2,"[0, 0, 0]","[0, 1]",undefined
3.4577,,0,2,1,219,0,1,"[0, 0, 0]","[2, 7, 6]",,False,,There is a tick.,770,"[9, 8, 7]",1,filler,"[0, 1]",False,exh-clausal,1,There is a square.,,"[5, 2, 8]",,True,There is a triangle.,0,"[0, 0, 0]","[1, 0]",undefined
3.4577,,0,2,1,258,1,0,"[0, 0, 0]","[5, 9, 7]",,True,,There is a square.,799,"[7, 6, 3]",1,response,"[1, 0]",False,exh-clausal,1,There is a triangle.,,"[9, 3, 4]",,False,There is a circle.,1,"[0, 0, 0]","[0, 1]",undefined
3.4577,,0,0,1,436,0,0,"[0, 0, 0]","[5, 2, 3]",,False,,Some of the symbols are squares.,1129,"[4, 1, 7]",1,filler,"[1, 0]",False,exh-clausal,1,Some of the symbols are hearts.,,"[4, 5, 1]",,False,Some of the symbols are hearts.,1,"[0, 0, 0]","[1, 0]",undefined
3.4577,,0,0,1,426,1,1,"[0, 0, 0]","[8, 7, 2]",,True,,Some of the symbols are notes.,1575,"[1, 0, 4]",1,filler,"[0, 1]",True,exh-clausal,1,Some of the symbols are spades.,,"[3, 2, 1]",,True,Some of the symbols are clubs.,0,"[0, 0, 0]","[0, 1]",undefined
3.4577,,0,1,1,225,0,0,"[0, 0, 0]","[6, 9, 8]",,False,,There are four stars.,1093,"[3, 0, 2]",1,filler,"[1, 0]",False,exh-clausal,1,There are four stars.,,"[6, 7, 8]",,False,There are four spades.,1,"[0, 0, 0]","[1, 0]",undefined
3.4577,,0,1,1,395,1,1,"[4, 0, 0]","[7, 8, 3]",,True,,There are four circles.,1027,"[3, 3, 0]",1,filler,"[0, 1]",True,exh-clausal,1,9 + 2 = ?,,"[11, 9, 2]",,True,3 + 0 = ?,3,"[9, 0, 0]","[0, 1]",undefined
3.4577,,0,1,1,4336,1,0,"[0, 0, 0]","[3, 1, 2]",,True,,There are four spades.,4897,"[7, 6, 8]",0,response,"[1, 0]",False,exh-clausal,1,There are four clubs.,,"[1, 6, 0]",,False,There are four circles.,0,"[0, 0, 0]","[0, 1]",undefined
3.4577,,0,1,,5582,1,0,"[0, 0, 0]","[5, 0, 2]",,False,,,1246,"[6, 1, 8]",0,filler,"[1, 0]",False,exh-clausal,,,,"[4, 2, 8]",,False,There are four stars.,1,"[0, 0, 0]","[0, 1]",undefined
3.4577,,0,0,0,25,0,1,"[0, 0, 0]","[7, 3, 5]",,True,,Some of the symbols are circles.,3715,"[7, 4, 5]",0,response,"[0, 1]",False,exh-clausal,0,Some of the symbols are squares.,,"[5, 9, 3]",,False,Some of the symbols are circles.,0,"[0, 0, 0]","[1, 0]",undefined
3.4577,,0,1,0,0,1,1,"[7, 0, 0]","[2, 1, 0]",,False,,There are four ticks.,134,"[9, 8, 1]",0,response,"[0, 1]",False,exh-clausal,0,4 + 9 = ?,,"[13, 4, 9]",,False,8 + 1 = ?,3,"[0, 0, 0]","[0, 1]",undefined
3.4577,,0,0,0,6,1,1,"[0, 0, 0]","[5, 6, 7]",,False,,Some of the symbols are squares.,23,"[5, 9, 1]",0,response,"[0, 1]",False,exh-clausal,0,Some of the symbols are ticks.,,"[2, 7, 3]",,False,Some of the symbols are squares.,1,"[0, 0, 0]","[0, 1]",undefined
3.4577,,0,0,0,145,1,0,"[0, 0, 0]","[0, 3, 8]",,False,,Some of the symbols are diamonds.,1254,"[0, 9, 8]",0,filler,"[1, 0]",False,exh-clausal,0,Some of the symbols are circles.,,"[7, 3, 9]",,True,Some of the symbols are diamonds.,1,"[0, 0, 0]","[0, 1]",undefined
3.4577,,0,0,0,253,0,1,"[0, 0, 0]","[4, 1, 2]",,True,,Some of the symbols are hearts.,675,"[5, 4, 3]",0,response,"[0, 1]",False,exh-clausal,0,"Some of the symbols are spades, but not all of them are spades.",,"[3, 7, 1]",,False,"Some of the symbols are squares, but not all of them are squares.",2,"[0, 0, 0]","[1, 0]",undefined
3.4577,,0,2,0,200,0,0,"[0, 0, 0]","[4, 7, 9]",,True,,There is a heart.,569,"[1, 4, 0]",0,response,"[1, 0]",True,exh-clausal,0,There is a star.,,"[6, 9, 7]",,True,There is a club.,1,"[0, 0, 0]","[1, 0]",undefined
3.4577,,0,1,0,199,1,1,"[0, 0, 0]","[8, 3, 2]",,False,,There are four notes.,614,"[3, 1, 2]",0,response,"[0, 1]",False,exh-clausal,0,"There are four triangles, but there are no more than four triangles.",,"[9, 6, 2]",,False,"There are four spades, but there are no more than four spades.",2,"[0, 0, 0]","[0, 1]",undefined
3.4577,,0,2,0,305,1,0,"[0, 0, 0]","[3, 0, 2]",,False,,There is a spade.,908,"[3, 6, 7]",0,response,"[1, 0]",False,exh-clausal,0,There is a note.,,"[8, 6, 1]",,True,There is a spade.,1,"[0, 0, 0]","[0, 1]",undefined
3.4577,,0,1,1,294,0,1,"[0, 0, 0]","[5, 1, 2]",,False,,There are four squares.,752,"[5, 1, 3]",1,filler,"[0, 1]",False,exh-clausal,1,There are four hearts.,,"[4, 1, 8]",,True,There are four squares.,1,"[0, 0, 0]","[1, 0]",undefined
3.4577,,0,1,1,249,1,0,"[4, 0, 0]","[0, 9, 1]",,True,,There are four diamonds.,826,"[9, 9, 0]",1,filler,"[1, 0]",False,exh-clausal,1,7 + 7 = ?,,"[14, 7, 7]",,False,9 + 0 = ?,3,"[0, 0, 0]","[0, 1]",undefined
3.4577,,0,1,1,237,1,1,"[2, 0, 0]","[6, 5, 7]",,True,,There are four stars.,676,"[11, 4, 7]",1,response,"[0, 1]",True,exh-clausal,1,8 + 8 = ?,,"[16, 8, 8]",,True,4 + 7 = ?,3,"[6, 0, 0]","[0, 1]",undefined
3.4577,,0,1,1,229,1,1,"[0, 0, 0]","[1, 2, 4]",,True,,There are four clubs.,698,"[8, 2, 9]",1,filler,"[0, 1]",True,exh-clausal,1,There are four hearts.,,"[4, 1, 5]",,True,There are four notes.,0,"[0, 0, 0]","[0, 1]",undefined
3.4577,,0,0,1,252,1,1,"[0, 0, 0]","[1, 4, 8]",,True,,Some of the symbols are clubs.,757,"[4, 6, 8]",1,filler,"[0, 1]",True,exh-clausal,1,Some of the symbols are triangles.,,"[9, 5, 0]",,True,Some of the symbols are hearts.,0,"[0, 0, 0]","[0, 1]",undefined
3.4577,,0,0,1,237,1,1,"[0, 0, 0]","[8, 2, 5]",,True,,Some of the symbols are notes.,701,"[5, 9, 0]",1,response,"[0, 1]",True,exh-clausal,1,Some of the symbols are spades.,,"[3, 5, 1]",,True,Some of the symbols are squares.,0,"[0, 0, 0]","[0, 1]",undefined
3.4577,,0,1,1,224,1,1,"[0, 0, 0]","[1, 2, 8]",,True,,There are four clubs.,2396,"[6, 2, 9]",1,filler,"[0, 1]",True,exh-clausal,1,"There are four hearts, but there are no more than four hearts.",,"[4, 2, 9]",,True,"There are four stars, but there are no more than four stars.",2,"[0, 0, 0]","[0, 1]",undefined
3.4577,,0,2,1,286,0,0,"[0, 0, 0]","[0, 8, 5]",,False,,There is a diamond.,712,"[1, 2, 8]",0,filler,"[1, 0]",False,exh-clausal,1,There is a club.,,"[1, 4, 0]",,False,There is a club.,0,"[0, 0, 0]","[1, 0]",undefined
3.4577,,0,1,0,215,0,0,"[1, 0, 0]","[3, 2, 8]",,True,,There are four spades.,632,"[11, 3, 8]",0,filler,"[1, 0]",True,exh-clausal,0,8 + 8 = ?,,"[16, 8, 8]",,True,3 + 8 = ?,3,"[2, 0, 0]","[1, 0]",undefined
3.4577,,0,0,0,205,1,0,"[5, 0, 0]","[9, 1, 0]",,False,,Some of the symbols are triangles.,823,"[14, 8, 6]",0,response,"[1, 0]",False,exh-clausal,0,7 + 4 = ?,,"[11, 7, 4]",,True,8 + 6 = ?,3,"[7, 0, 0]","[0, 1]",undefined
3.4577,,0,1,0,316,0,0,"[0, 0, 0]","[7, 1, 4]",,True,,There are four circles.,851,"[5, 0, 6]",0,response,"[1, 0]",True,exh-clausal,0,There are four squares.,,"[5, 1, 8]",,True,There are four squares.,1,"[0, 0, 0]","[1, 0]",undefined
3.4577,,0,0,0,339,0,0,"[0, 0, 0]","[8, 9, 3]",,True,,Some of the symbols are notes.,818,"[5, 4, 0]",0,filler,"[1, 0]",True,exh-clausal,0,Some of the symbols are circles.,,"[7, 3, 5]",,True,Some of the symbols are squares.,0,"[0, 0, 0]","[1, 0]",undefined
3.4577,,0,1,0,170,0,0,"[0, 0, 0]","[8, 1, 9]",,True,,There are four notes.,753,"[1, 3, 8]",0,filler,"[1, 0]",True,exh-clausal,0,"There are four squares, but there are no more than four squares.",,"[5, 3, 8]",,True,"There are four clubs, but there are no more than four clubs.",2,"[0, 0, 0]","[1, 0]",undefined
3.4577,,0,2,0,416,0,0,"[0, 0, 0]","[5, 7, 6]",,True,,There is a square.,858,"[8, 4, 6]",0,filler,"[1, 0]",True,exh-clausal,0,There is a note.,,"[8, 7, 4]",,True,There is a note.,1,"[0, 0, 0]","[1, 0]",undefined
3.4577,,0,2,0,227,1,0,"[0, 0, 0]","[4, 1, 3]",,False,,There is a heart.,881,"[1, 9, 7]",0,response,"[1, 0]",False,exh-clausal,0,There is a tick.,,"[2, 5, 1]",,True,There is a club.,1,"[0, 0, 0]","[0, 1]",undefined
3.4577,,0,2,1,261,1,1,"[8, 0, 0]","[8, 0, 9]",,True,,There is a note.,789,"[6, 2, 4]",1,filler,"[0, 1]",False,exh-clausal,0,0 + 1 = ?,,"[1, 0, 1]",,False,2 + 4 = ?,3,"[3, 0, 0]","[0, 1]",undefined
3.4577,,0,2,1,209,0,1,"[0, 0, 0]","[6, 4, 1]",,False,,There is a star.,791,"[7, 1, 6]",1,response,"[0, 1]",False,exh-clausal,1,"There is a spade, but there is nothing besides a spade.",,"[3, 7, 8]",,True,"There is a circle, but there is nothing besides a circle.",2,"[0, 0, 0]","[1, 0]",undefined
3.4577,,0,2,1,380,0,0,"[0, 0, 0]","[0, 5, 3]",,False,,There is a diamond.,819,"[7, 5, 1]",1,response,"[1, 0]",False,exh-clausal,1,"There is a circle, but there is nothing besides a circle.",,"[7, 8, 5]",,False,"There is a circle, but there is nothing besides a circle.",2,"[0, 0, 0]","[1, 0]",undefined
3.4577,,0,0,1,365,1,1,"[0, 0, 0]","[6, 5, 8]",,True,,Some of the symbols are stars.,831,"[5, 1, 8]",1,response,"[0, 1]",True,exh-clausal,1,Some of the symbols are clubs.,,"[1, 2, 0]",,True,Some of the symbols are squares.,0,"[0, 0, 0]","[0, 1]",undefined
3.4577,,0,2,1,229,0,1,"[7, 0, 0]","[8, 6, 9]",,False,,There is a note.,699,"[13, 7, 6]",1,response,"[0, 1]",False,exh-clausal,1,9 + 1 = ?,,"[10, 9, 1]",,True,7 + 6 = ?,3,"[0, 0, 0]","[1, 0]",undefined
3.4577,,0,2,1,370,1,1,"[0, 0, 0]","[1, 7, 5]",,True,,There is a club.,814,"[3, 4, 0]",1,response,"[0, 1]",True,exh-clausal,1,There is a spade.,,"[3, 6, 4]",,True,There is a spade.,0,"[0, 0, 0]","[0, 1]",undefined
3.4577,,0,2,1,336,1,1,"[0, 0, 0]","[9, 2, 1]",,True,,There is a triangle.,981,"[5, 3, 2]",1,filler,"[0, 1]",True,exh-clausal,1,"There is a circle, but there is nothing besides a circle.",,"[7, 3, 4]",,True,"There is a square, but there is nothing besides a square.",2,"[0, 0, 0]","[0, 1]",undefined
3.4577,,0,2,0,437,1,0,"[0, 0, 0]","[5, 2, 0]",,False,,There is a square.,957,"[8, 7, 2]",0,filler,"[1, 0]",False,exh-clausal,1,There is a star.,,"[6, 4, 9]",,False,There is a note.,0,"[0, 0, 0]","[0, 1]",undefined
3.4577,,0,2,0,236,1,0,"[0, 0, 0]","[1, 6, 5]",,False,,There is a club.,662,"[6, 8, 1]",0,response,"[1, 0]",False,exh-clausal,0,There is a circle.,,"[7, 2, 6]",,True,There is a star.,0,"[0, 0, 0]","[0, 1]",undefined
3.4577,,0,1,0,158,1,1,"[0, 0, 0]","[5, 2, 1]",,False,,There are four squares.,854,"[5, 9, 6]",0,response,"[0, 1]",False,exh-clausal,0,"There are four spades, but there are no more than four spades.",,"[3, 7, 5]",,False,"There are four squares, but there are no more than four squares.",2,"[0, 0, 0]","[0, 1]",undefined
3.4577,,0,2,0,73,0,1,"[8, 0, 0]","[7, 3, 1]",,True,,There is a circle.,688,"[8, 8, 0]",0,response,"[0, 1]",False,exh-clausal,0,0 + 0 = ?,,"[0, 0, 0]",,False,8 + 0 = ?,3,"[5, 0, 0]","[1, 0]",undefined
3.4577,,0,0,0,244,0,1,"[0, 0, 0]","[9, 7, 6]",,True,,Some of the symbols are triangles.,777,"[1, 6, 9]",0,filler,"[0, 1]",False,exh-clausal,0,"Some of the symbols are hearts, but not all of them are hearts.",,"[4, 9, 1]",,False,"Some of the symbols are clubs, but not all of them are clubs.",2,"[0, 0, 0]","[1, 0]",undefined
3.4577,,0,1,0,283,0,0,"[0, 0, 0]","[3, 8, 6]",,True,,There are four spades.,853,"[0, 6, 3]",0,filler,"[1, 0]",True,exh-clausal,0,There are four stars.,,"[6, 5, 7]",,True,There are four diamonds.,0,"[0, 0, 0]","[1, 0]",undefined
3.4577,,0,1,0,165,0,1,"[1, 0, 0]","[1, 6, 3]",,True,,There are four clubs.,760,"[11, 4, 7]",0,response,"[0, 1]",False,exh-clausal,0,2 + 7 = ?,,"[9, 2, 7]",,False,4 + 7 = ?,3,"[2, 0, 0]","[1, 0]",undefined
3.4577,,0,0,0,308,1,1,"[0, 0, 0]","[1, 7, 3]",,False,,Some of the symbols are clubs.,800,"[2, 6, 8]",0,response,"[0, 1]",False,exh-clausal,0,Some of the symbols are clubs.,,"[1, 3, 9]",,False,Some of the symbols are ticks.,0,"[0, 0, 0]","[0, 1]",undefined
3.4577,,0,2,0,192,1,0,"[10, 0, 0]","[4, 0, 8]",,False,,There is a heart.,809,"[8, 8, 0]",0,response,"[1, 0]",False,exh-clausal,0,5 + 4 = ?,,"[9, 5, 4]",,True,8 + 0 = ?,3,"[7, 0, 0]","[0, 1]",undefined
3.4577,,0,2,0,236,0,0,"[0, 0, 0]","[9, 8, 1]",,True,,There is a triangle.,652,"[4, 1, 9]",0,filler,"[1, 0]",True,exh-clausal,0,"There is a square, but there is nothing besides a square.",,"[5, 9, 8]",,True,"There is a heart, but there is nothing besides a heart.",2,"[0, 0, 0]","[1, 0]",undefined
3.4577,,0,1,0,228,1,1,"[0, 0, 0]","[7, 2, 4]",,False,,There are four circles.,957,"[2, 7, 0]",0,filler,"[0, 1]",False,exh-clausal,0,There are four squares.,,"[5, 1, 8]",,False,There are four ticks.,1,"[0, 0, 0]","[0, 1]",undefined
3.4577,,0,2,0,237,1,0,"[1, 0, 0]","[3, 5, 4]",,False,,There is a spade.,740,"[6, 3, 3]",0,filler,"[1, 0]",False,exh-clausal,0,5 + 5 = ?,,"[10, 5, 5]",,True,3 + 3 = ?,3,"[8, 0, 0]","[0, 1]",undefined
3.4577,,0,0,0,236,0,0,"[0, 0, 0]","[5, 3, 7]",,True,,Some of the symbols are squares.,691,"[1, 0, 3]",0,response,"[1, 0]",True,exh-clausal,0,Some of the symbols are clubs.,,"[1, 9, 6]",,True,Some of the symbols are clubs.,1,"[0, 0, 0]","[1, 0]",undefined
3.4577,,0,1,0,314,1,0,"[0, 0, 0]","[4, 5, 0]",,False,,There are four hearts.,791,"[2, 9, 6]",0,response,"[1, 0]",False,exh-clausal,0,There are four stars.,,"[6, 9, 3]",,True,There are four ticks.,0,"[0, 0, 0]","[0, 1]",undefined
3.4577,,0,0,0,258,0,0,"[5, 0, 0]","[5, 9, 2]",,True,,Some of the symbols are squares.,744,"[10, 2, 8]",0,response,"[1, 0]",True,exh-clausal,0,7 + 4 = ?,,"[11, 7, 4]",,True,2 + 8 = ?,3,"[3, 0, 0]","[1, 0]",undefined
3.4577,,0,0,0,270,1,0,"[0, 0, 0]","[6, 8, 0]",,False,,Some of the symbols are stars.,707,"[6, 7, 9]",0,filler,"[1, 0]",False,exh-clausal,0,"Some of the symbols are clubs, but not all of them are clubs.",,"[1, 8, 6]",,True,"Some of the symbols are stars, but not all of them are stars.",2,"[0, 0, 0]","[0, 1]",undefined
3.4577,,0,0,0,217,0,0,"[1, 0, 0]","[9, 6, 4]",,True,,Some of the symbols are triangles.,691,"[7, 0, 7]",0,response,"[1, 0]",True,exh-clausal,0,1 + 7 = ?,,"[8, 1, 7]",,True,0 + 7 = ?,3,"[5, 0, 0]","[1, 0]",undefined
3.4577,,0,1,0,221,1,1,"[1, 0, 0]","[5, 4, 8]",,False,,There are four squares.,738,"[6, 1, 5]",0,response,"[0, 1]",False,exh-clausal,0,3 + 5 = ?,,"[8, 3, 5]",,False,1 + 5 = ?,3,"[5, 0, 0]","[0, 1]",undefined
3.4577,,0,0,0,493,0,1,"[0, 0, 0]","[4, 2, 1]",,True,,Some of the symbols are hearts.,942,"[9, 3, 0]",0,filler,"[0, 1]",False,exh-clausal,0,Some of the symbols are squares.,,"[5, 6, 9]",,False,Some of the symbols are triangles.,1,"[0, 0, 0]","[1, 0]",undefined
3.4577,,0,1,0,238,0,1,"[0, 0, 0]","[0, 5, 4]",,True,,There are four diamonds.,696,"[0, 8, 2]",0,filler,"[0, 1]",False,exh-clausal,0,There are four hearts.,,"[4, 5, 2]",,False,There are four diamonds.,0,"[0, 0, 0]","[1, 0]",undefined
3.4577,,0,0,0,174,0,0,"[0, 0, 0]","[5, 3, 1]",,True,,Some of the symbols are squares.,662,"[0, 3, 6]",0,filler,"[1, 0]",True,exh-clausal,0,"Some of the symbols are diamonds, but not all of them are diamonds.",,"[0, 1, 3]",,True,"Some of the symbols are diamonds, but not all of them are diamonds.",2,"[0, 0, 0]","[1, 0]",undefined
3.4577,,0,1,0,215,1,0,"[0, 0, 0]","[9, 1, 0]",,False,,There are four triangles.,689,"[2, 0, 7]",0,filler,"[1, 0]",False,exh-clausal,0,"There are four circles, but there are no more than four circles.",,"[7, 2, 6]",,True,"There are four ticks, but there are no more than four ticks.",2,"[0, 0, 0]","[0, 1]",undefined
3.4577,,0,1,0,180,0,1,"[0, 0, 0]","[0, 5, 2]",,True,,There are four diamonds.,648,"[9, 3, 6]",0,response,"[0, 1]",False,exh-clausal,0,There are four squares.,,"[5, 6, 9]",,False,There are four triangles.,1,"[0, 0, 0]","[1, 0]",undefined
3.4577,,0,2,0,340,1,1,"[0, 0, 0]","[6, 0, 2]",,False,,There is a star.,904,"[4, 9, 7]",0,response,"[0, 1]",False,exh-clausal,0,"There is a triangle, but there is nothing besides a triangle.",,"[9, 7, 4]",,False,"There is a heart, but there is nothing besides a heart.",2,"[0, 0, 0]","[0, 1]",undefined
3.4577,,0,1,0,235,0,1,"[0, 0, 0]","[8, 2, 4]",,True,,There are four notes.,833,"[1, 9, 8]",0,response,"[0, 1]",False,exh-clausal,0,There are four triangles.,,"[9, 3, 7]",,False,There are four clubs.,1,"[0, 0, 0]","[1, 0]",undefined
7.791133333333334,Elizabeth,1,,,,,,,,,,"[0, 'Elizabeth']",,,,,,,,,,,1,,bot_check,,,,,,undefined
7.791133333333334,,1,1,0,4601,0,1,"[0, 0, 0]","[8, 2, 3]",,True,,There are four notes.,17460,"[0, 5, 3]",1,filler,"[0, 1]",True,exh-clausal,1,"There are four clubs, but there are no more than four clubs.",,"[1, 4, 5]",,True,"There are four diamonds, but there are no more than four diamonds.",2,"[0, 0, 0]","[1, 0]",undefined
7.791133333333334,,1,0,0,4442,0,1,"[0, 0, 0]","[7, 9, 6]",,True,,Some of the symbols are circles.,13660,"[1, 7, 6]",1,filler,"[0, 1]",True,exh-clausal,1,Some of the symbols are diamonds.,,"[0, 4, 9]",,True,Some of the symbols are clubs.,1,"[0, 0, 0]","[1, 0]",undefined
7.791133333333334,,1,2,1,3024,0,0,"[8, 0, 0]","[7, 6, 9]",,False,,There is a circle.,13510,"[16, 7, 9]",0,response,"[1, 0]",False,exh-clausal,0,5 + 4 = ?,,"[9, 5, 4]",,True,7 + 9 = ?,3,"[9, 0, 0]","[1, 0]",undefined
7.791133333333334,,1,0,1,5804,1,0,"[6, 0, 0]","[0, 6, 9]",,True,,Some of the symbols are diamonds.,10798,"[7, 4, 3]",1,filler,"[1, 0]",False,exh-clausal,1,6 + 0 = ?,,"[6, 6, 0]",,False,4 + 3 = ?,3,"[9, 0, 0]","[0, 1]",undefined
7.791133333333334,,1,0,0,5887,0,0,"[5, 0, 0]","[4, 1, 0]",,True,,Some of the symbols are hearts.,13343,"[11, 4, 7]",1,response,"[1, 0]",False,exh-clausal,1,2 + 9 = ?,,"[11, 2, 9]",,False,4 + 7 = ?,3,"[8, 0, 0]","[1, 0]",undefined
7.791133333333334,,1,1,0,4716,0,1,"[0, 0, 0]","[8, 7, 3]",,True,,There are four notes.,13792,"[7, 3, 1]",1,response,"[0, 1]",True,exh-clausal,1,"There are four triangles, but there are no more than four triangles.",,"[9, 4, 8]",,True,"There are four circles, but there are no more than four circles.",2,"[0, 0, 0]","[1, 0]",undefined
7.791133333333334,,1,0,1,8121,1,0,"[0, 0, 0]","[1, 5, 0]",,True,,Some of the symbols are clubs.,18846,"[3, 1, 4]",1,filler,"[1, 0]",True,exh-clausal,0,Some of the symbols are hearts.,,"[4, 0, 9]",,True,Some of the symbols are spades.,1,"[0, 0, 0]","[0, 1]",undefined
7.791133333333334,,1,2,1,3764,1,0,"[0, 0, 0]","[8, 6, 4]",,True,,There is a note.,10559,"[0, 8, 5]",0,response,"[1, 0]",True,exh-clausal,0,There is a square.,,"[5, 0, 8]",,True,There is a diamond.,0,"[0, 0, 0]","[0, 1]",undefined
7.791133333333334,,1,1,0,19528,1,0,"[0, 0, 0]","[3, 7, 6]",,False,,There are four spades.,132426,"[5, 2, 8]",1,filler,"[1, 0]",False,exh-clausal,0,There are four ticks.,,"[2, 8, 0]",,True,There are four squares.,1,"[0, 0, 0]","[0, 1]",undefined
7.791133333333334,,1,0,1,313,0,1,"[0, 0, 0]","[8, 1, 2]",,False,,Some of the symbols are notes.,14244,"[0, 2, 7]",0,filler,"[0, 1]",False,exh-clausal,0,Some of the symbols are stars.,,"[6, 7, 8]",,False,Some of the symbols are diamonds.,1,"[0, 0, 0]","[1, 0]",undefined
7.791133333333334,,1,0,0,419,1,0,"[7, 0, 0]","[4, 5, 0]",,False,,Some of the symbols are hearts.,885,"[2, 0, 2]",0,response,"[1, 0]",False,exh-clausal,1,1 + 2 = ?,,"[3, 1, 2]",,False,0 + 2 = ?,3,"[3, 0, 0]","[0, 1]",undefined
7.791133333333334,,1,2,0,194,0,1,"[0, 0, 0]","[1, 3, 0]",,True,,There is a club.,649,"[1, 7, 0]",0,response,"[0, 1]",False,exh-clausal,0,There is a square.,,"[5, 8, 2]",,False,There is a club.,1,"[0, 0, 0]","[1, 0]",undefined
7.791133333333334,,1,0,0,168,0,1,"[0, 0, 0]","[8, 9, 6]",,True,,Some of the symbols are notes.,553,"[9, 8, 6]",0,filler,"[0, 1]",True,exh-clausal,1,"Some of the symbols are hearts, but not all of them are hearts.",,"[4, 1, 5]",,True,"Some of the symbols are triangles, but not all of them are triangles.",2,"[0, 0, 0]","[1, 0]",undefined
7.791133333333334,,1,2,0,194,0,1,"[0, 0, 0]","[1, 9, 7]",,True,,There is a club.,672,"[1, 6, 4]",0,filler,"[0, 1]",True,exh-clausal,1,There is a note.,,"[8, 0, 5]",,True,There is a club.,0,"[0, 0, 0]","[1, 0]",undefined
7.791133333333334,,1,1,0,166,0,0,"[0, 0, 0]","[8, 0, 3]",,True,,There are four notes.,572,"[0, 1, 7]",0,filler,"[1, 0]",True,exh-clausal,0,There are four notes.,,"[8, 5, 4]",,True,There are four diamonds.,0,"[0, 0, 0]","[1, 0]",undefined
7.791133333333334,,1,2,0,192,0,0,"[1, 0, 0]","[8, 1, 4]",,True,,There is a note.,522,"[10, 8, 2]",0,filler,"[1, 0]",False,exh-clausal,1,1 + 1 = ?,,"[2, 1, 1]",,False,8 + 2 = ?,3,"[1, 0, 0]","[1, 0]",undefined
7.791133333333334,,1,2,0,269,0,1,"[0, 0, 0]","[8, 2, 4]",,True,,There is a note.,720,"[6, 4, 8]",1,response,"[0, 1]",False,exh-clausal,0,"There is a square, but there is nothing besides a square.",,"[5, 3, 1]",,False,"There is a star, but there is nothing besides a star.",2,"[0, 0, 0]","[1, 0]",undefined
7.791133333333334,,1,2,1,168,1,1,"[0, 0, 0]","[4, 9, 1]",,True,,There is a heart.,544,"[0, 6, 4]",0,response,"[0, 1]",False,exh-clausal,0,There is a tick.,,"[2, 3, 4]",,False,There is a diamond.,0,"[0, 0, 0]","[0, 1]",undefined
7.791133333333334,,1,0,0,155,1,1,"[0, 0, 0]","[2, 7, 8]",,False,,Some of the symbols are ticks.,480,"[1, 9, 3]",0,response,"[0, 1]",False,exh-clausal,1,Some of the symbols are ticks.,,"[2, 1, 0]",,True,Some of the symbols are clubs.,0,"[0, 0, 0]","[0, 1]",undefined
7.791133333333334,,1,1,0,104,0,1,"[0, 0, 0]","[7, 8, 2]",,True,,There are four circles.,475,"[5, 0, 5]",0,filler,"[0, 1]",True,exh-clausal,1,7 + 2 = ?,,"[9, 7, 2]",,True,0 + 5 = ?,3,"[5, 0, 0]","[1, 0]",undefined
7.791133333333334,,1,1,0,185,0,1,"[0, 0, 0]","[3, 7, 0]",,True,,There are four spades.,592,"[5, 4, 7]",0,response,"[0, 1]",False,exh-clausal,0,"There are four squares, but there are no more than four squares.",,"[5, 2, 6]",,False,"There are four squares, but there are no more than four squares.",2,"[0, 0, 0]","[1, 0]",undefined
7.791133333333334,,1,1,0,179,0,0,"[0, 0, 0]","[2, 6, 4]",,True,,There are four ticks.,578,"[8, 2, 0]",0,response,"[1, 0]",True,exh-clausal,0,There are four hearts.,,"[4, 3, 8]",,True,There are four notes.,0,"[0, 0, 0]","[1, 0]",undefined
7.791133333333334,,1,0,0,210,1,1,"[0, 0, 0]","[7, 1, 4]",,False,,Some of the symbols are circles.,585,"[1, 6, 4]",0,response,"[0, 1]",False,exh-clausal,0,Some of the symbols are spades.,,"[3, 1, 7]",,False,Some of the symbols are clubs.,1,"[0, 0, 0]","[0, 1]",undefined
7.791133333333334,,1,2,0,254,1,1,"[0, 0, 0]","[1, 8, 3]",,False,,There is a club.,764,"[6, 7, 0]",0,response,"[0, 1]",False,exh-clausal,0,There is a star.,,"[6, 4, 7]",,False,There is a star.,1,"[0, 0, 0]","[0, 1]",undefined
7.791133333333334,,1,2,0,270,1,1,"[1, 0, 0]","[1, 4, 2]",,False,,There is a club.,675,"[3, 1, 2]",0,filler,"[0, 1]",False,exh-clausal,0,1 + 2 = ?,,"[3, 1, 2]",,False,1 + 2 = ?,3,"[7, 0, 0]","[0, 1]",undefined
7.791133333333334,,1,0,0,209,1,0,"[0, 0, 0]","[4, 9, 2]",,False,,Some of the symbols are hearts.,555,"[6, 4, 0]",0,response,"[1, 0]",False,exh-clausal,0,Some of the symbols are squares.,,"[5, 1, 4]",,True,Some of the symbols are stars.,1,"[0, 0, 0]","[0, 1]",undefined
7.791133333333334,,1,2,0,221,1,1,"[0, 0, 0]","[5, 0, 2]",,False,,There is a square.,780,"[5, 2, 8]",0,response,"[0, 1]",False,exh-clausal,0,There is a circle.,,"[7, 2, 9]",,False,There is a square.,0,"[0, 0, 0]","[0, 1]",undefined
7.791133333333334,,1,1,0,231,1,0,"[0, 0, 0]","[7, 9, 5]",,False,,There are four circles.,652,"[1, 4, 9]",1,filler,"[1, 0]",False,exh-clausal,0,There are four squares.,,"[5, 2, 0]",,True,There are four clubs.,1,"[0, 0, 0]","[0, 1]",undefined
7.791133333333334,,1,0,0,149,1,0,"[0, 0, 0]","[2, 7, 5]",,False,,Some of the symbols are ticks.,578,"[8, 2, 7]",0,response,"[1, 0]",False,exh-clausal,1,Some of the symbols are squares.,,"[5, 1, 3]",,False,Some of the symbols are notes.,0,"[0, 0, 0]","[0, 1]",undefined
7.791133333333334,,1,0,0,199,1,1,"[0, 0, 0]","[9, 3, 1]",,False,,Some of the symbols are triangles.,605,"[5, 4, 8]",0,response,"[0, 1]",False,exh-clausal,0,"Some of the symbols are circles, but not all of them are circles.",,"[7, 1, 0]",,False,"Some of the symbols are squares, but not all of them are squares.",2,"[0, 0, 0]","[0, 1]",undefined
7.791133333333334,,1,0,1,207,0,0,"[0, 0, 0]","[6, 7, 2]",,False,,Some of the symbols are stars.,460,"[9, 1, 3]",0,response,"[1, 0]",False,exh-clausal,0,Some of the symbols are notes.,,"[8, 2, 3]",,True,Some of the symbols are triangles.,1,"[0, 0, 0]","[1, 0]",undefined
7.791133333333334,,1,2,0,159,1,1,"[0, 0, 0]","[3, 9, 5]",,False,,There is a spade.,550,"[9, 4, 6]",1,response,"[0, 1]",False,exh-clausal,1,"There is a heart, but there is nothing besides a heart.",,"[4, 0, 6]",,True,"There is a triangle, but there is nothing besides a triangle.",2,"[0, 0, 0]","[0, 1]",undefined
7.791133333333334,,1,0,1,285,1,0,"[2, 0, 0]","[0, 7, 1]",,True,,Some of the symbols are diamonds.,651,"[15, 7, 8]",0,filler,"[1, 0]",True,exh-clausal,0,1 + 2 = ?,,"[3, 1, 2]",,True,7 + 8 = ?,3,"[4, 0, 0]","[0, 1]",undefined
7.791133333333334,,1,1,1,191,1,0,"[0, 0, 0]","[4, 3, 8]",,True,,There are four hearts.,615,"[4, 0, 8]",0,response,"[1, 0]",True,exh-clausal,0,"There are four spades, but there are no more than four spades.",,"[3, 7, 9]",,True,"There are four hearts, but there are no more than four hearts.",2,"[0, 0, 0]","[0, 1]",undefined
7.791133333333334,,1,2,0,224,1,0,"[0, 0, 0]","[2, 5, 9]",,False,,There is a tick.,719,"[1, 0, 8]",0,response,"[1, 0]",False,exh-clausal,0,There is a heart.,,"[4, 7, 9]",,True,There is a club.,0,"[0, 0, 0]","[0, 1]",undefined
7.791133333333334,,1,1,1,191,1,0,"[0, 0, 0]","[9, 6, 3]",,True,,There are four triangles.,570,"[6, 0, 4]",0,response,"[1, 0]",True,exh-clausal,0,There are four circles.,,"[7, 1, 3]",,True,There are four stars.,1,"[0, 0, 0]","[0, 1]",undefined
7.791133333333334,,1,1,0,197,1,0,"[4, 0, 0]","[2, 7, 3]",,False,,There are four ticks.,617,"[4, 4, 0]",1,response,"[1, 0]",False,exh-clausal,0,7 + 0 = ?,,"[7, 7, 0]",,True,4 + 0 = ?,3,"[1, 0, 0]","[0, 1]",undefined
7.791133333333334,,1,2,0,210,1,0,"[0, 0, 0]","[1, 2, 6]",,False,,There is a club.,493,"[7, 6, 3]",0,filler,"[1, 0]",False,exh-clausal,0,There is a heart.,,"[4, 2, 8]",,True,There is a circle.,0,"[0, 0, 0]","[0, 1]",undefined
7.791133333333334,,1,1,1,60,0,0,"[0, 0, 0]","[1, 2, 0]",,False,,There are four clubs.,512,"[11, 4, 7]",0,filler,"[1, 0]",False,exh-clausal,0,6 + 6 = ?,,"[12, 6, 6]",,True,4 + 7 = ?,3,"[3, 0, 0]","[1, 0]",undefined
7.791133333333334,,1,0,0,211,0,1,"[0, 0, 0]","[7, 5, 2]",,True,,Some of the symbols are circles.,929,"[1, 9, 5]",0,filler,"[0, 1]",False,exh-clausal,0,Some of the symbols are clubs.,,"[1, 2, 4]",,False,Some of the symbols are clubs.,0,"[0, 0, 0]","[1, 0]",undefined
7.791133333333334,,1,1,0,239,1,1,"[0, 0, 0]","[5, 6, 0]",,False,,There are four squares.,616,"[2, 9, 3]",1,filler,"[0, 1]",False,exh-clausal,1,"There are four spades, but there are no more than four spades.",,"[3, 9, 2]",,True,"There are four ticks, but there are no more than four ticks.",2,"[0, 0, 0]","[0, 1]",undefined
7.791133333333334,,1,2,1,191,1,0,"[0, 0, 0]","[0, 4, 2]",,True,,There is a diamond.,494,"[0, 6, 7]",0,response,"[1, 0]",True,exh-clausal,0,There is a tick.,,"[2, 0, 4]",,True,There is a diamond.,1,"[0, 0, 0]","[0, 1]",undefined
7.791133333333334,,1,1,0,190,1,0,"[0, 0, 0]","[1, 7, 2]",,False,,There are four clubs.,659,"[2, 5, 8]",0,filler,"[1, 0]",False,exh-clausal,0,There are four circles.,,"[7, 9, 2]",,True,There are four ticks.,0,"[0, 0, 0]","[0, 1]",undefined
7.791133333333334,,1,1,0,210,0,1,"[0, 0, 0]","[9, 7, 4]",,True,,There are four triangles.,844,"[0, 5, 1]",1,response,"[0, 1]",False,exh-clausal,0,There are four squares.,,"[5, 0, 4]",,False,There are four diamonds.,0,"[0, 0, 0]","[1, 0]",undefined
7.791133333333334,,1,0,0,164,0,0,"[0, 0, 0]","[3, 8, 6]",,True,,Some of the symbols are spades.,521,"[7, 2, 0]",1,response,"[1, 0]",True,exh-clausal,0,"Some of the symbols are spades, but not all of them are spades.",,"[3, 0, 5]",,True,"Some of the symbols are circles, but not all of them are circles.",2,"[0, 0, 0]","[1, 0]",undefined
7.791133333333334,,1,1,1,54,1,1,"[0, 0, 0]","[5, 6, 9]",,True,,There are four squares.,398,"[8, 3, 9]",0,response,"[0, 1]",False,exh-clausal,0,"There are four circles, but there are no more than four circles.",,"[7, 0, 8]",,False,"There are four notes, but there are no more than four notes.",2,"[0, 0, 0]","[0, 1]",undefined
7.791133333333334,,1,1,0,210,0,1,"[0, 0, 0]","[7, 6, 0]",,True,,There are four circles.,667,"[1, 9, 4]",0,response,"[0, 1]",False,exh-clausal,0,There are four hearts.,,"[4, 2, 8]",,False,There are four clubs.,0,"[0, 0, 0]","[1, 0]",undefined
7.791133333333334,,1,1,0,192,1,1,"[0, 0, 0]","[5, 3, 2]",,False,,There are four squares.,734,"[6, 7, 3]",0,filler,"[0, 1]",False,exh-clausal,0,"There are four notes, but there are no more than four notes.",,"[8, 9, 6]",,False,"There are four stars, but there are no more than four stars.",2,"[0, 0, 0]","[0, 1]",undefined
7.791133333333334,,1,1,0,198,0,1,"[0, 0, 0]","[5, 4, 1]",,True,,There are four squares.,925,"[1, 0, 9]",0,response,"[0, 1]",False,exh-clausal,0,There are four squares.,,"[5, 9, 3]",,False,There are four clubs.,1,"[0, 0, 0]","[1, 0]",undefined
7.791133333333334,,1,0,0,495,1,1,"[9, 0, 0]","[8, 5, 7]",,False,,Some of the symbols are notes.,1070,"[9, 1, 8]",0,response,"[0, 1]",False,exh-clausal,1,5 + 8 = ?,,"[13, 5, 8]",,True,1 + 8 = ?,3,"[8, 0, 0]","[0, 1]",undefined
7.791133333333334,,1,2,0,150,0,1,"[6, 0, 0]","[9, 5, 6]",,True,,There is a triangle.,556,"[13, 5, 8]",1,response,"[0, 1]",False,exh-clausal,0,7 + 7 = ?,,"[14, 7, 7]",,False,5 + 8 = ?,3,"[8, 0, 0]","[1, 0]",undefined
7.791133333333334,,1,0,0,207,1,0,"[0, 0, 0]","[6, 0, 1]",,False,,Some of the symbols are stars.,599,"[6, 8, 2]",0,response,"[1, 0]",False,exh-clausal,0,Some of the symbols are triangles.,,"[9, 4, 2]",,True,Some of the symbols are stars.,0,"[0, 0, 0]","[0, 1]",undefined
7.791133333333334,,1,2,1,165,1,1,"[0, 0, 0]","[0, 5, 8]",,True,,There is a diamond.,527,"[3, 5, 0]",0,filler,"[0, 1]",False,exh-clausal,0,"There is a tick, but there is nothing besides a tick.",,"[2, 0, 6]",,False,"There is a spade, but there is nothing besides a spade.",2,"[0, 0, 0]","[0, 1]",undefined
7.791133333333334,,1,2,0,178,1,1,"[5, 0, 0]","[4, 2, 3]",,False,,There is a heart.,642,"[4, 0, 4]",1,filler,"[0, 1]",False,exh-clausal,0,3 + 2 = ?,,"[5, 3, 2]",,False,0 + 4 = ?,3,"[7, 0, 0]","[0, 1]",undefined
7.791133333333334,,1,1,0,556,0,0,"[0, 0, 0]","[1, 0, 5]",,True,,There are four clubs.,887,"[1, 4, 3]",0,filler,"[1, 0]",True,exh-clausal,0,"There are four clubs, but there are no more than four clubs.",,"[1, 0, 2]",,True,"There are four clubs, but there are no more than four clubs.",2,"[0, 0, 0]","[1, 0]",undefined
7.791133333333334,,1,1,0,120,0,0,"[5, 0, 0]","[5, 8, 0]",,True,,There are four squares.,1259,"[1, 1, 0]",1,filler,"[1, 0]",True,exh-clausal,0,0 + 1 = ?,,"[1, 0, 1]",,True,1 + 0 = ?,3,"[2, 0, 0]","[1, 0]",undefined
7.791133333333334,,1,1,0,108,0,0,"[0, 0, 0]","[9, 0, 8]",,True,,There are four triangles.,499,"[3, 0, 8]",1,response,"[1, 0]",True,exh-clausal,0,There are four ticks.,,"[2, 8, 4]",,True,There are four spades.,0,"[0, 0, 0]","[1, 0]",undefined
7.791133333333334,,1,2,1,212,0,0,"[0, 0, 0]","[4, 9, 7]",,False,,There is a heart.,479,"[0, 3, 4]",1,response,"[1, 0]",False,exh-clausal,0,"There is a note, but there is nothing besides a note.",,"[8, 1, 9]",,True,"There is a diamond, but there is nothing besides a diamond.",2,"[0, 0, 0]","[1, 0]",undefined
7.791133333333334,,1,2,0,123,1,1,"[0, 0, 0]","[6, 8, 9]",,False,,There is a star.,692,"[7, 5, 4]",1,filler,"[0, 1]",False,exh-clausal,1,"There is a circle, but there is nothing besides a circle.",,"[7, 3, 1]",,True,"There is a circle, but there is nothing besides a circle.",2,"[0, 0, 0]","[0, 1]",undefined
7.791133333333334,,1,1,1,223,1,0,"[0, 0, 0]","[0, 4, 8]",,True,,There are four diamonds.,460,"[5, 4, 2]",0,filler,"[1, 0]",True,exh-clausal,0,There are four triangles.,,"[9, 5, 0]",,True,There are four squares.,0,"[0, 0, 0]","[0, 1]",undefined
7.791133333333334,,1,0,1,256,0,0,"[0, 0, 0]","[9, 2, 4]",,False,,Some of the symbols are triangles.,632,"[4, 2, 0]",0,filler,"[1, 0]",False,exh-clausal,0,"Some of the symbols are spades, but not all of them are spades.",,"[3, 4, 5]",,True,"Some of the symbols are hearts, but not all of them are hearts.",2,"[0, 0, 0]","[1, 0]",undefined
7.791133333333334,,1,0,0,194,0,0,"[6, 0, 0]","[4, 3, 6]",,True,,Some of the symbols are hearts.,568,"[10, 7, 3]",0,filler,"[1, 0]",True,exh-clausal,0,1 + 1 = ?,,"[2, 1, 1]",,True,7 + 3 = ?,3,"[3, 0, 0]","[1, 0]",undefined
7.791133333333334,,1,0,0,162,0,1,"[0, 0, 0]","[4, 0, 2]",,True,,Some of the symbols are hearts.,572,"[4, 9, 5]",1,filler,"[0, 1]",False,exh-clausal,0,Some of the symbols are stars.,,"[6, 9, 2]",,False,Some of the symbols are hearts.,0,"[0, 0, 0]","[1, 0]",undefined
7.791133333333334,,1,2,1,58,0,0,"[0, 0, 0]","[9, 4, 7]",,False,,There is a triangle.,433,"[8, 2, 5]",0,response,"[1, 0]",False,exh-clausal,0,"There is a spade, but there is nothing besides a spade.",,"[3, 8, 7]",,True,"There is a note, but there is nothing besides a note.",2,"[0, 0, 0]","[1, 0]",undefined
7.791133333333334,,1,0,0,149,0,0,"[0, 0, 0]","[0, 4, 1]",,True,,Some of the symbols are diamonds.,377,"[2, 3, 0]",1,response,"[1, 0]",False,exh-clausal,1,"Some of the symbols are hearts, but not all of them are hearts.",,"[4, 9, 8]",,False,"Some of the symbols are ticks, but not all of them are ticks.",2,"[0, 0, 0]","[1, 0]",undefined
7.791133333333334,,1,2,0,177,0,1,"[0, 0, 0]","[5, 9, 7]",,True,,There is a square.,507,"[8, 3, 0]",1,filler,"[0, 1]",False,exh-clausal,0,There is a club.,,"[1, 8, 5]",,False,There is a note.,1,"[0, 0, 0]","[1, 0]",undefined
7.791133333333334,,1,1,1,274,1,1,"[0, 0, 0]","[6, 4, 8]",,True,,There are four stars.,620,"[4, 0, 9]",0,response,"[0, 1]",False,exh-clausal,0,There are four spades.,,"[3, 8, 4]",,False,There are four hearts.,1,"[0, 0, 0]","[0, 1]",undefined
7.791133333333334,,1,2,0,342,0,1,"[0, 0, 0]","[8, 7, 6]",,True,,There is a note.,565,"[8, 9, 3]",0,filler,"[0, 1]",True,exh-clausal,1,There is a square.,,"[5, 0, 2]",,True,There is a note.,1,"[0, 0, 0]","[1, 0]",undefined
7.791133333333334,,1,2,0,195,0,1,"[0, 0, 0]","[4, 9, 6]",,True,,There is a heart.,390,"[0, 4, 7]",1,response,"[0, 1]",True,exh-clausal,1,There is a spade.,,"[3, 8, 0]",,True,There is a diamond.,1,"[0, 0, 0]","[1, 0]",undefined
7.791133333333334,,1,2,0,146,0,1,"[0, 0, 0]","[5, 9, 2]",,True,,There is a square.,480,"[5, 7, 9]",1,filler,"[0, 1]",False,exh-clausal,0,There is a diamond.,,"[0, 8, 9]",,False,There is a square.,0,"[0, 0, 0]","[1, 0]",undefined
7.791133333333334,,1,1,1,92,1,0,"[0, 0, 0]","[0, 1, 5]",,True,,There are four diamonds.,303,"[1, 9, 0]",0,filler,"[1, 0]",True,exh-clausal,0,There are four hearts.,,"[4, 6, 9]",,True,There are four clubs.,0,"[0, 0, 0]","[0, 1]",undefined
7.791133333333334,,1,0,1,76,0,0,"[0, 0, 0]","[2, 3, 0]",,False,,Some of the symbols are ticks.,507,"[1, 0, 9]",0,filler,"[1, 0]",False,exh-clausal,1,Some of the symbols are clubs.,,"[1, 9, 6]",,False,Some of the symbols are clubs.,0,"[0, 0, 0]","[1, 0]",undefined
7.791133333333334,,1,2,1,58,1,1,"[0, 0, 0]","[6, 2, 5]",,True,,There is a star.,449,"[4, 2, 0]",0,filler,"[0, 1]",False,exh-clausal,0,There is a heart.,,"[4, 9, 1]",,False,There is a heart.,1,"[0, 0, 0]","[0, 1]",undefined
7.791133333333334,,1,0,0,208,0,1,"[0, 0, 0]","[1, 3, 8]",,True,,Some of the symbols are clubs.,435,"[9, 4, 5]",1,response,"[0, 1]",True,exh-clausal,1,"Some of the symbols are clubs, but not all of them are clubs.",,"[1, 7, 9]",,True,"Some of the symbols are triangles, but not all of them are triangles.",2,"[0, 0, 0]","[1, 0]",undefined
7.791133333333334,,1,2,1,118,1,0,"[0, 0, 0]","[3, 6, 9]",,True,,There is a spade.,345,"[3, 1, 4]",0,filler,"[1, 0]",True,exh-clausal,0,There is a heart.,,"[4, 3, 0]",,True,There is a spade.,1,"[0, 0, 0]","[0, 1]",undefined
7.791133333333334,,1,0,0,356,1,1,"[0, 0, 0]","[4, 0, 3]",,False,,Some of the symbols are hearts.,570,"[4, 1, 9]",1,filler,"[0, 1]",False,exh-clausal,1,"Some of the symbols are ticks, but not all of them are ticks.",,"[2, 8, 4]",,True,"Some of the symbols are hearts, but not all of them are hearts.",2,"[0, 0, 0]","[0, 1]",undefined
7.791133333333334,,1,2,1,240,0,0,"[8, 0, 0]","[4, 3, 6]",,False,,There is a heart.,602,"[3, 2, 1]",0,response,"[1, 0]",False,exh-clausal,0,7 + 4 = ?,,"[11, 7, 4]",,True,2 + 1 = ?,3,"[7, 0, 0]","[1, 0]",undefined
7.791133333333334,,1,2,0,133,1,0,"[0, 0, 0]","[0, 4, 8]",,False,,There is a diamond.,1393,"[2, 3, 7]",1,filler,"[1, 0]",False,exh-clausal,0,"There is a tick, but there is nothing besides a tick.",,"[2, 4, 6]",,True,"There is a tick, but there is nothing besides a tick.",2,"[0, 0, 0]","[0, 1]",undefined
7.791133333333334,,1,2,1,180,1,1,"[0, 0, 0]","[3, 9, 4]",,True,,There is a spade.,450,"[5, 2, 3]",0,filler,"[0, 1]",False,exh-clausal,0,There is a club.,,"[1, 9, 7]",,False,There is a square.,0,"[0, 0, 0]","[0, 1]",undefined
7.791133333333334,,1,1,0,221,0,1,"[8, 0, 0]","[7, 8, 0]",,True,,There are four circles.,479,"[10, 3, 7]",0,response,"[0, 1]",True,exh-clausal,1,5 + 8 = ?,,"[13, 5, 8]",,True,3 + 7 = ?,3,"[3, 0, 0]","[1, 0]",undefined
7.791133333333334,,1,0,0,194,1,1,"[4, 0, 0]","[6, 2, 3]",,False,,Some of the symbols are stars.,660,"[13, 6, 7]",0,response,"[0, 1]",False,exh-clausal,0,5 + 5 = ?,,"[10, 5, 5]",,False,6 + 7 = ?,3,"[4, 0, 0]","[0, 1]",undefined
7.791133333333334,,1,0,0,146,1,1,"[0, 0, 0]","[8, 2, 9]",,False,,Some of the symbols are notes.,555,"[2, 3, 5]",1,filler,"[0, 1]",False,exh-clausal,1,Some of the symbols are stars.,,"[6, 0, 7]",,True,Some of the symbols are ticks.,1,"[0, 0, 0]","[0, 1]",undefined
7.791133333333334,,1,1,0,287,0,1,"[0, 0, 0]","[7, 8, 3]",,True,,There are four circles.,739,"[1, 4, 0]",0,filler,"[0, 1]",True,exh-clausal,1,There are four squares.,,"[5, 7, 0]",,True,There are four clubs.,1,"[0, 0, 0]","[1, 0]",undefined
7.791133333333334,,1,1,0,164,1,1,"[0, 0, 0]","[0, 3, 4]",,False,,There are four diamonds.,520,"[7, 3, 5]",1,response,"[0, 1]",False,exh-clausal,0,There are four ticks.,,"[2, 3, 8]",,False,There are four circles.,1,"[0, 0, 0]","[0, 1]",undefined
7.791133333333334,,1,0,0,186,0,0,"[6, 0, 0]","[7, 1, 0]",,True,,Some of the symbols are circles.,572,"[7, 7, 0]",0,filler,"[1, 0]",True,exh-clausal,0,0 + 3 = ?,,"[3, 0, 3]",,True,7 + 0 = ?,3,"[1, 0, 0]","[1, 0]",undefined
7.791133333333334,,1,2,1,159,0,0,"[0, 0, 0]","[9, 4, 2]",,False,,There is a triangle.,448,"[10, 8, 2]",0,filler,"[1, 0]",False,exh-clausal,0,3 + 3 = ?,,"[6, 3, 3]",,True,8 + 2 = ?,3,"[2, 0, 0]","[1, 0]",undefined
7.791133333333334,,1,1,1,87,0,0,"[5, 0, 0]","[6, 5, 4]",,False,,There are four stars.,483,"[5, 5, 0]",0,response,"[1, 0]",False,exh-clausal,0,7 + 5 = ?,,"[12, 7, 5]",,True,5 + 0 = ?,3,"[4, 0, 0]","[1, 0]",undefined
7.791133333333334,,1,1,0,135,0,0,"[5, 0, 0]","[3, 1, 6]",,True,,There are four spades.,418,"[4, 1, 3]",1,filler,"[1, 0]",False,exh-clausal,1,1 + 9 = ?,,"[10, 1, 9]",,False,1 + 3 = ?,3,"[6, 0, 0]","[1, 0]",undefined
7.791133333333334,,1,0,0,213,1,1,"[0, 0, 0]","[9, 3, 4]",,False,,Some of the symbols are triangles.,513,"[2, 8, 4]",0,filler,"[0, 1]",False,exh-clausal,0,"Some of the symbols are spades, but not all of them are spades.",,"[3, 6, 7]",,False,"Some of the symbols are ticks, but not all of them are ticks.",2,"[0, 0, 0]","[0, 1]",undefined
7.791133333333334,,1,2,1,267,0,1,"[8, 0, 0]","[3, 4, 5]",,False,,There is a spade.,581,"[6, 0, 6]",1,response,"[0, 1]",False,exh-clausal,1,0 + 1 = ?,,"[1, 0, 1]",,True,0 + 6 = ?,3,"[3, 0, 0]","[1, 0]",undefined
7.791133333333334,,1,0,0,289,0,0,"[0, 0, 0]","[6, 2, 0]",,True,,Some of the symbols are stars.,803,"[3, 0, 7]",0,response,"[1, 0]",True,exh-clausal,0,Some of the symbols are stars.,,"[6, 1, 7]",,True,Some of the symbols are spades.,0,"[0, 0, 0]","[1, 0]",undefined
7.791133333333334,,1,1,1,212,1,0,"[3, 0, 0]","[9, 1, 7]",,True,,There are four triangles.,549,"[9, 2, 7]",0,response,"[1, 0]",True,exh-clausal,0,3 + 3 = ?,,"[6, 3, 3]",,True,2 + 7 = ?,3,"[4, 0, 0]","[0, 1]",undefined
7.791133333333334,,1,0,1,193,1,0,"[0, 0, 0]","[1, 7, 0]",,True,,Some of the symbols are clubs.,599,"[4, 8, 3]",1,response,"[1, 0]",True,exh-clausal,0,Some of the symbols are triangles.,,"[9, 6, 8]",,True,Some of the symbols are hearts.,1,"[0, 0, 0]","[0, 1]",undefined
7.791133333333334,,1,0,0,225,0,0,"[0, 0, 0]","[0, 3, 9]",,True,,Some of the symbols are diamonds.,614,"[3, 0, 4]",1,filler,"[1, 0]",True,exh-clausal,0,Some of the symbols are clubs.,,"[1, 0, 5]",,True,Some of the symbols are spades.,0,"[0, 0, 0]","[1, 0]",undefined
7.791133333333334,,1,1,0,444,1,1,"[0, 0, 0]","[4, 7, 9]",,False,,There are four hearts.,809,"[2, 6, 0]",0,filler,"[0, 1]",False,exh-clausal,0,There are four ticks.,,"[2, 3, 8]",,False,There are four ticks.,1,"[0, 0, 0]","[0, 1]",undefined
7.791133333333334,,1,2,0,406,1,0,"[0, 0, 0]","[6, 3, 8]",,False,,There is a star.,708,"[5, 7, 0]",1,filler,"[1, 0]",False,exh-clausal,1,"There is a triangle, but there is nothing besides a triangle.",,"[9, 8, 0]",,False,"There is a square, but there is nothing besides a square.",2,"[0, 0, 0]","[0, 1]",undefined
8.833416666666666,Barbara,2,,,,,,,,,,"[0, 'Barbara']",,,,,,,,,,,1,,bot_check,,,,,,undefined
8.833416666666666,,2,2,1,1504,1,1,"[4, 0, 0]","[9, 2, 8]",,True,,There is a triangle.,4263,"[7, 2, 5]",0,response,"[0, 1]",False,exh-clausal,0,8 + 2 = ?,,"[10, 8, 2]",,False,2 + 5 = ?,3,"[8, 0, 0]","[0, 1]",undefined
8.833416666666666,,2,2,0,2082,0,0,"[0, 0, 0]","[2, 5, 6]",,True,,There is a tick.,6856,"[6, 1, 5]",0,response,"[1, 0]",True,exh-clausal,0,There is a diamond.,,"[0, 1, 9]",,True,There is a star.,1,"[0, 0, 0]","[1, 0]",undefined
8.833416666666666,,2,1,1,1634,0,0,"[0, 0, 0]","[6, 3, 1]",,False,,There are four stars.,8626,"[2, 6, 0]",1,filler,"[1, 0]",False,exh-clausal,0,There are four circles.,,"[7, 1, 0]",,True,There are four ticks.,0,"[0, 0, 0]","[1, 0]",undefined
8.833416666666666,,2,0,1,3079,1,1,"[9, 0, 0]","[4, 3, 2]",,True,,Some of the symbols are hearts.,5733,"[6, 6, 0]",1,response,"[0, 1]",False,exh-clausal,0,3 + 7 = ?,,"[10, 3, 7]",,False,6 + 0 = ?,3,"[8, 0, 0]","[0, 1]",undefined
8.833416666666666,,2,2,1,1432,1,1,"[0, 0, 0]","[7, 1, 4]",,True,,There is a circle.,6400,"[0, 9, 2]",1,filler,"[0, 1]",True,exh-clausal,1,There is a star.,,"[6, 9, 8]",,True,There is a diamond.,0,"[0, 0, 0]","[0, 1]",undefined
8.833416666666666,,2,0,1,2161,1,0,"[0, 0, 0]","[6, 8, 2]",,True,,Some of the symbols are stars.,8522,"[8, 4, 5]",1,filler,"[1, 0]",True,exh-clausal,0,Some of the symbols are triangles.,,"[9, 2, 7]",,True,Some of the symbols are notes.,0,"[0, 0, 0]","[0, 1]",undefined
8.833416666666666,,2,0,0,2720,0,1,"[0, 0, 0]","[1, 8, 5]",,True,,Some of the symbols are clubs.,8055,"[8, 9, 0]",1,filler,"[0, 1]",True,exh-clausal,1,Some of the symbols are diamonds.,,"[0, 8, 6]",,True,Some of the symbols are notes.,1,"[0, 0, 0]","[1, 0]",undefined
8.833416666666666,,2,2,0,2517,0,1,"[0, 0, 0]","[5, 8, 1]",,True,,There is a square.,8998,"[6, 5, 9]",1,response,"[0, 1]",True,exh-clausal,1,There is a triangle.,,"[9, 2, 7]",,True,There is a star.,1,"[0, 0, 0]","[1, 0]",undefined
8.833416666666666,,2,1,0,3147,0,1,"[0, 0, 0]","[8, 4, 3]",,True,,There are four notes.,7811,"[4, 5, 9]",1,response,"[0, 1]",True,exh-clausal,1,"There are four clubs, but there are no more than four clubs.",,"[1, 2, 9]",,True,"There are four hearts, but there are no more than four hearts.",2,"[0, 0, 0]","[1, 0]",undefined
8.833416666666666,,2,0,1,2669,1,0,"[0, 0, 0]","[3, 6, 9]",,True,,Some of the symbols are spades.,9291,"[8, 1, 7]",1,filler,"[1, 0]",True,exh-clausal,0,Some of the symbols are stars.,,"[6, 8, 1]",,True,Some of the symbols are notes.,1,"[0, 0, 0]","[0, 1]",undefined
8.833416666666666,,2,0,0,1809,0,1,"[0, 0, 0]","[9, 1, 7]",,True,,Some of the symbols are triangles.,11954,"[3, 7, 5]",0,response,"[0, 1]",True,exh-clausal,1,"Some of the symbols are circles, but not all of them are circles.",,"[7, 4, 1]",,True,"Some of the symbols are spades, but not all of them are spades.",2,"[0, 0, 0]","[1, 0]",undefined
8.833416666666666,,2,0,0,2192,0,0,"[0, 0, 0]","[0, 5, 7]",,True,,Some of the symbols are diamonds.,7620,"[3, 1, 8]",1,response,"[1, 0]",True,exh-clausal,0,Some of the symbols are circles.,,"[7, 9, 1]",,True,Some of the symbols are spades.,1,"[0, 0, 0]","[1, 0]",undefined
8.833416666666666,,2,0,1,2858,1,1,"[0, 0, 0]","[7, 1, 8]",,True,,Some of the symbols are circles.,6717,"[3, 4, 1]",1,filler,"[0, 1]",True,exh-clausal,1,Some of the symbols are ticks.,,"[2, 9, 0]",,True,Some of the symbols are spades.,0,"[0, 0, 0]","[0, 1]",undefined
8.833416666666666,,2,0,1,2054,1,1,"[0, 0, 0]","[1, 4, 9]",,True,,Some of the symbols are clubs.,6068,"[5, 9, 4]",1,filler,"[0, 1]",True,exh-clausal,1,"Some of the symbols are triangles, but not all of them are triangles.",,"[9, 0, 7]",,True,"Some of the symbols are squares, but not all of them are squares.",2,"[0, 0, 0]","[0, 1]",undefined
8.833416666666666,,2,1,1,2248,1,1,"[4, 0, 0]","[5, 3, 4]",,True,,There are four squares.,5012,"[2, 0, 2]",1,response,"[0, 1]",False,exh-clausal,0,7 + 7 = ?,,"[14, 7, 7]",,False,0 + 2 = ?,3,"[0, 0, 0]","[0, 1]",undefined
8.833416666666666,,2,1,0,1615,0,1,"[0, 0, 0]","[0, 5, 8]",,True,,There are four diamonds.,5273,"[4, 1, 2]",1,filler,"[0, 1]",True,exh-clausal,1,There are four squares.,,"[5, 9, 3]",,True,There are four hearts.,0,"[0, 0, 0]","[1, 0]",undefined
8.833416666666666,,2,2,1,1648,1,0,"[0, 0, 0]","[1, 5, 6]",,True,,There is a club.,4075,"[8, 3, 5]",1,filler,"[1, 0]",True,exh-clausal,0,There is a club.,,"[1, 6, 9]",,True,There is a note.,1,"[0, 0, 0]","[0, 1]",undefined
8.833416666666666,,2,1,1,1326,1,1,"[0, 0, 0]","[7, 1, 0]",,True,,There are four circles.,4440,"[6, 9, 3]",1,response,"[0, 1]",True,exh-clausal,1,"There are four ticks, but there are no more than four ticks.",,"[2, 4, 7]",,True,"There are four stars, but there are no more than four stars.",2,"[0, 0, 0]","[0, 1]",undefined
8.833416666666666,,2,0,1,2222,1,0,"[0, 0, 0]","[9, 3, 5]",,True,,Some of the symbols are triangles.,5727,"[4, 8, 1]",1,response,"[1, 0]",True,exh-clausal,0,Some of the symbols are triangles.,,"[9, 2, 5]",,True,Some of the symbols are hearts.,1,"[0, 0, 0]","[0, 1]",undefined
8.833416666666666,,2,2,0,1960,0,0,"[6, 0, 0]","[3, 2, 5]",,True,,There is a spade.,4007,"[12, 6, 6]",0,response,"[1, 0]",False,exh-clausal,1,7 + 3 = ?,,"[10, 7, 3]",,False,6 + 6 = ?,3,"[6, 0, 0]","[1, 0]",undefined
8.833416666666666,,2,2,0,3157,0,1,"[0, 0, 0]","[3, 4, 2]",,True,,There is a spade.,6862,"[6, 7, 2]",1,filler,"[0, 1]",True,exh-clausal,1,There is a diamond.,,"[0, 3, 9]",,True,There is a star.,0,"[0, 0, 0]","[1, 0]",undefined
8.833416666666666,,2,0,1,1827,1,0,"[0, 0, 0]","[6, 2, 1]",,True,,Some of the symbols are stars.,5715,"[4, 2, 7]",1,filler,"[1, 0]",True,exh-clausal,0,"Some of the symbols are spades, but not all of them are spades.",,"[3, 6, 9]",,True,"Some of the symbols are hearts, but not all of them are hearts.",2,"[0, 0, 0]","[0, 1]",undefined
8.833416666666666,,2,2,1,1223,0,1,"[4, 0, 0]","[0, 9, 7]",,False,,There is a diamond.,3493,"[9, 9, 0]",1,filler,"[0, 1]",False,exh-clausal,0,8 + 8 = ?,,"[16, 8, 8]",,False,9 + 0 = ?,3,"[0, 0, 0]","[1, 0]",undefined
8.833416666666666,,2,1,1,1345,1,1,"[0, 0, 0]","[9, 1, 5]",,True,,There are four triangles.,3647,"[6, 5, 8]",1,response,"[0, 1]",True,exh-clausal,1,There are four hearts.,,"[4, 5, 1]",,True,There are four stars.,1,"[0, 0, 0]","[0, 1]",undefined
8.833416666666666,,2,0,0,2633,0,0,"[0, 0, 0]","[3, 1, 7]",,True,,Some of the symbols are spades.,5651,"[0, 4, 3]",0,response,"[1, 0]",True,exh-clausal,0,Some of the symbols are squares.,,"[5, 0, 2]",,True,Some of the symbols are diamonds.,0,"[0, 0, 0]","[1, 0]",undefined
8.833416666666666,,2,1,1,2421,1,0,"[0, 0, 0]","[2, 5, 8]",,True,,There are four ticks.,5906,"[2, 3, 0]",1,response,"[1, 0]",True,exh-clausal,0,There are four clubs.,,"[1, 0, 6]",,True,There are four ticks.,0,"[0, 0, 0]","[0, 1]",undefined
8.833416666666666,,2,0,1,2361,1,1,"[0, 0, 0]","[3, 0, 1]",,True,,Some of the symbols are spades.,7530,"[6, 4, 8]",0,response,"[0, 1]",True,exh-clausal,1,"Some of the symbols are hearts, but not all of them are hearts.",,"[4, 2, 9]",,True,"Some of the symbols are stars, but not all of them are stars.",2,"[0, 0, 0]","[0, 1]",undefined
8.833416666666666,,2,0,0,2561,0,0,"[0, 0, 0]","[1, 4, 9]",,True,,Some of the symbols are clubs.,5911,"[7, 5, 1]",0,response,"[1, 0]",True,exh-clausal,0,Some of the symbols are squares.,,"[5, 7, 8]",,True,Some of the symbols are circles.,0,"[0, 0, 0]","[1, 0]",undefined
8.833416666666666,,2,1,0,1447,0,0,"[0, 0, 0]","[0, 7, 9]",,True,,There are four diamonds.,5165,"[9, 0, 3]",1,filler,"[1, 0]",True,exh-clausal,0,"There are four triangles, but there are no more than four triangles.",,"[9, 8, 4]",,True,"There are four triangles, but there are no more than four triangles.",2,"[0, 0, 0]","[1, 0]",undefined
8.833416666666666,,2,1,1,1548,1,0,"[0, 0, 0]","[0, 7, 8]",,True,,There are four diamonds.,3895,"[7, 5, 2]",1,response,"[1, 0]",True,exh-clausal,0,There are four circles.,,"[7, 0, 1]",,True,There are four circles.,1,"[0, 0, 0]","[0, 1]",undefined
8.833416666666666,,2,0,0,1990,0,0,"[0, 0, 0]","[1, 0, 3]",,True,,Some of the symbols are clubs.,5977,"[4, 2, 0]",1,filler,"[1, 0]",True,exh-clausal,0,"Some of the symbols are clubs, but not all of them are clubs.",,"[1, 0, 3]",,True,"Some of the symbols are hearts, but not all of them are hearts.",2,"[0, 0, 0]","[1, 0]",undefined
8.833416666666666,,2,1,0,1434,0,0,"[0, 0, 0]","[2, 6, 1]",,True,,There are four ticks.,4307,"[8, 6, 0]",1,filler,"[1, 0]",True,exh-clausal,0,There are four spades.,,"[3, 1, 8]",,True,There are four notes.,0,"[0, 0, 0]","[1, 0]",undefined
8.833416666666666,,2,0,1,1413,1,1,"[0, 0, 0]","[4, 9, 8]",,True,,Some of the symbols are hearts.,6074,"[9, 5, 0]",1,response,"[0, 1]",True,exh-clausal,1,Some of the symbols are triangles.,,"[9, 8, 6]",,True,Some of the symbols are triangles.,1,"[0, 0, 0]","[0, 1]",undefined
8.833416666666666,,2,1,1,1120,1,0,"[0, 0, 0]","[8, 6, 1]",,True,,There are four notes.,3953,"[2, 4, 8]",1,filler,"[1, 0]",True,exh-clausal,0,There are four notes.,,"[8, 0, 2]",,True,There are four ticks.,1,"[0, 0, 0]","[0, 1]",undefined
8.833416666666666,,2,1,0,1035,1,0,"[7, 0, 0]","[5, 1, 2]",,False,,There are four squares.,3776,"[14, 5, 9]",1,response,"[1, 0]",False,exh-clausal,1,8 + 3 = ?,,"[11, 8, 3]",,False,5 + 9 = ?,3,"[2, 0, 0]","[0, 1]",undefined
8.833416666666666,,2,2,1,1904,1,0,"[0, 0, 0]","[2, 1, 5]",,True,,There is a tick.,6255,"[7, 9, 2]",1,response,"[1, 0]",True,exh-clausal,0,"There is a circle, but there is nothing besides a circle.",,"[7, 8, 6]",,True,"There is a circle, but there is nothing besides a circle.",2,"[0, 0, 0]","[0, 1]",undefined
8.833416666666666,,2,1,1,1751,1,1,"[0, 0, 0]","[0, 2, 6]",,True,,There are four diamonds.,4619,"[9, 3, 4]",0,response,"[0, 1]",True,exh-clausal,1,There are four triangles.,,"[9, 6, 3]",,True,There are four triangles.,0,"[0, 0, 0]","[0, 1]",undefined
8.833416666666666,,2,2,0,2440,1,0,"[8, 0, 0]","[3, 0, 8]",,False,,There is a spade.,8218,"[11, 7, 4]",1,filler,"[1, 0]",False,exh-clausal,1,8 + 0 = ?,,"[8, 8, 0]",,False,7 + 4 = ?,3,"[4, 0, 0]","[0, 1]",undefined
8.833416666666666,,2,0,0,3205,0,1,"[0, 0, 0]","[6, 0, 7]",,True,,Some of the symbols are stars.,8163,"[0, 3, 4]",1,filler,"[0, 1]",True,exh-clausal,1,Some of the symbols are diamonds.,,"[0, 1, 7]",,True,Some of the symbols are diamonds.,0,"[0, 0, 0]","[1, 0]",undefined
8.833416666666666,,2,0,0,2472,0,0,"[0, 0, 0]","[4, 2, 1]",,True,,Some of the symbols are hearts.,7947,"[9, 8, 2]",1,response,"[1, 0]",True,exh-clausal,0,"Some of the symbols are stars, but not all of them are stars.",,"[6, 9, 1]",,True,"Some of the symbols are triangles, but not all of them are triangles.",2,"[0, 0, 0]","[1, 0]",undefined
8.833416666666666,,2,1,0,1208,0,1,"[8, 0, 0]","[9, 8, 4]",,True,,There are four triangles.,4622,"[11, 2, 9]",1,filler,"[0, 1]",True,exh-clausal,1,5 + 7 = ?,,"[12, 5, 7]",,True,2 + 9 = ?,3,"[0, 0, 0]","[1, 0]",undefined
8.833416666666666,,2,1,0,1413,0,0,"[0, 0, 0]","[7, 3, 8]",,True,,There are four circles.,4429,"[2, 7, 9]",1,response,"[1, 0]",True,exh-clausal,0,There are four circles.,,"[7, 5, 3]",,True,There are four ticks.,0,"[0, 0, 0]","[1, 0]",undefined
8.833416666666666,,2,1,0,1094,0,0,"[0, 0, 0]","[0, 2, 4]",,True,,There are four diamonds.,3842,"[8, 1, 0]",1,filler,"[1, 0]",True,exh-clausal,0,There are four squares.,,"[5, 0, 2]",,True,There are four notes.,1,"[0, 0, 0]","[1, 0]",undefined
8.833416666666666,,2,2,0,958,0,1,"[0, 0, 0]","[2, 8, 5]",,True,,There is a tick.,4308,"[8, 4, 7]",0,response,"[0, 1]",True,exh-clausal,1,There is a club.,,"[1, 8, 4]",,True,There is a note.,0,"[0, 0, 0]","[1, 0]",undefined
8.833416666666666,,2,2,0,5797,0,1,"[0, 0, 0]","[9, 2, 1]",,True,,There is a triangle.,14403,"[1, 9, 6]",1,filler,"[0, 1]",False,exh-clausal,0,"There is a note, but there is nothing besides a note.",,"[8, 6, 0]",,False,"There is a club, but there is nothing besides a club.",2,"[0, 0, 0]","[1, 0]",undefined
8.833416666666666,,2,2,0,1592,0,0,"[0, 0, 0]","[9, 0, 2]",,True,,There is a triangle.,9046,"[3, 2, 8]",1,response,"[1, 0]",True,exh-clausal,0,There is a spade.,,"[3, 6, 0]",,True,There is a spade.,0,"[0, 0, 0]","[1, 0]",undefined
8.833416666666666,,2,1,1,1355,1,1,"[0, 0, 0]","[6, 1, 7]",,True,,There are four stars.,4819,"[5, 4, 0]",1,filler,"[0, 1]",True,exh-clausal,1,There are four squares.,,"[5, 4, 3]",,True,There are four squares.,1,"[0, 0, 0]","[0, 1]",undefined
8.833416666666666,,2,1,0,1372,0,1,"[6, 0, 0]","[6, 3, 5]",,True,,There are four stars.,3898,"[18, 9, 9]",1,filler,"[0, 1]",True,exh-clausal,1,5 + 5 = ?,,"[10, 5, 5]",,True,9 + 9 = ?,3,"[5, 0, 0]","[1, 0]",undefined
8.833416666666666,,2,0,0,2301,1,0,"[0, 0, 0]","[8, 5, 9]",,False,,Some of the symbols are notes.,5117,"[9, 5, 4]",0,response,"[1, 0]",False,exh-clausal,1,5 + 3 = ?,,"[8, 5, 3]",,False,5 + 4 = ?,3,"[7, 0, 0]","[0, 1]",undefined
8.833416666666666,,2,0,1,1117,1,0,"[0, 0, 0]","[9, 3, 7]",,True,,Some of the symbols are triangles.,3447,"[6, 0, 2]",0,response,"[1, 0]",True,exh-clausal,0,Some of the symbols are ticks.,,"[2, 0, 9]",,True,Some of the symbols are stars.,0,"[0, 0, 0]","[0, 1]",undefined
8.833416666666666,,2,2,1,1425,1,1,"[0, 0, 0]","[2, 0, 6]",,True,,There is a tick.,5092,"[0, 6, 5]",1,filler,"[0, 1]",True,exh-clausal,1,There is a star.,,"[6, 4, 2]",,True,There is a diamond.,0,"[0, 0, 0]","[0, 1]",undefined
8.833416666666666,,2,2,1,1552,1,1,"[0, 0, 0]","[2, 9, 7]",,True,,There is a tick.,4307,"[2, 7, 9]",1,filler,"[0, 1]",True,exh-clausal,1,"There is a square, but there is nothing besides a square.",,"[5, 6, 8]",,True,"There is a tick, but there is nothing besides a tick.",2,"[0, 0, 0]","[0, 1]",undefined
8.833416666666666,,2,0,0,1358,0,1,"[0, 0, 0]","[3, 6, 8]",,True,,Some of the symbols are spades.,3744,"[3, 7, 9]",0,response,"[0, 1]",True,exh-clausal,1,"Some of the symbols are triangles, but not all of them are triangles.",,"[9, 0, 3]",,True,"Some of the symbols are spades, but not all of them are spades.",2,"[0, 0, 0]","[1, 0]",undefined
8.833416666666666,,2,1,1,1659,1,0,"[0, 0, 0]","[3, 6, 8]",,True,,There are four spades.,4103,"[8, 7, 3]",1,filler,"[1, 0]",True,exh-clausal,0,There are four stars.,,"[6, 5, 7]",,True,There are four notes.,1,"[0, 0, 0]","[0, 1]",undefined
8.833416666666666,,2,0,1,3478,1,1,"[0, 0, 0]","[4, 8, 0]",,True,,Some of the symbols are hearts.,6270,"[2, 9, 0]",0,response,"[0, 1]",True,exh-clausal,1,Some of the symbols are spades.,,"[3, 1, 8]",,True,Some of the symbols are ticks.,1,"[0, 0, 0]","[0, 1]",undefined
8.833416666666666,,2,2,1,1415,1,1,"[0, 0, 0]","[3, 1, 4]",,True,,There is a spade.,4761,"[3, 0, 7]",0,filler,"[0, 1]",True,exh-clausal,1,"There is a circle, but there is nothing besides a circle.",,"[7, 6, 0]",,True,"There is a spade, but there is nothing besides a spade.",2,"[0, 0, 0]","[0, 1]",undefined
8.833416666666666,,2,2,0,1506,0,0,"[0, 0, 0]","[2, 8, 9]",,True,,There is a tick.,4644,"[8, 6, 3]",0,response,"[1, 0]",True,exh-clausal,0,There is a club.,,"[1, 9, 3]",,True,There is a note.,0,"[0, 0, 0]","[1, 0]",undefined
8.833416666666666,,2,2,1,1880,1,1,"[0, 0, 0]","[7, 3, 4]",,True,,There is a circle.,4380,"[5, 6, 3]",1,response,"[0, 1]",True,exh-clausal,1,"There is a tick, but there is nothing besides a tick.",,"[2, 9, 8]",,True,"There is a square, but there is nothing besides a square.",2,"[0, 0, 0]","[0, 1]",undefined
8.833416666666666,,2,2,0,1581,0,0,"[5, 0, 0]","[5, 4, 9]",,True,,There is a square.,4409,"[9, 4, 5]",1,filler,"[1, 0]",False,exh-clausal,1,3 + 1 = ?,,"[4, 3, 1]",,False,4 + 5 = ?,3,"[0, 0, 0]","[1, 0]",undefined
8.833416666666666,,2,2,1,1238,1,0,"[0, 0, 0]","[8, 0, 5]",,True,,There is a note.,4766,"[7, 8, 9]",1,filler,"[1, 0]",True,exh-clausal,0,"There is a square, but there is nothing besides a square.",,"[5, 0, 3]",,True,"There is a circle, but there is nothing besides a circle.",2,"[0, 0, 0]","[0, 1]",undefined
8.833416666666666,,2,2,1,1042,0,0,"[1, 0, 0]","[0, 2, 8]",,False,,There is a diamond.,3879,"[8, 7, 1]",1,filler,"[1, 0]",False,exh-clausal,0,2 + 0 = ?,,"[2, 2, 0]",,True,7 + 1 = ?,3,"[6, 0, 0]","[1, 0]",undefined
8.833416666666666,,2,2,1,1466,0,1,"[0, 0, 0]","[0, 1, 2]",,False,,There is a diamond.,4057,"[6, 8, 2]",0,response,"[0, 1]",False,exh-clausal,1,"There is a circle, but there is nothing besides a circle.",,"[7, 2, 9]",,True,"There is a star, but there is nothing besides a star.",2,"[0, 0, 0]","[1, 0]",undefined
8.833416666666666,,2,1,0,1371,0,0,"[2, 0, 0]","[2, 6, 7]",,True,,There are four ticks.,3964,"[13, 9, 4]",1,filler,"[1, 0]",False,exh-clausal,1,7 + 1 = ?,,"[8, 7, 1]",,False,9 + 4 = ?,3,"[1, 0, 0]","[1, 0]",undefined
8.833416666666666,,2,0,1,1133,1,0,"[0, 0, 0]","[4, 5, 2]",,True,,Some of the symbols are hearts.,3587,"[2, 0, 5]",0,response,"[1, 0]",False,exh-clausal,1,Some of the symbols are spades.,,"[3, 2, 5]",,False,Some of the symbols are ticks.,0,"[0, 0, 0]","[0, 1]",undefined
8.833416666666666,,2,1,1,1162,1,0,"[0, 0, 0]","[5, 6, 2]",,True,,There are four squares.,3357,"[6, 8, 7]",0,response,"[1, 0]",True,exh-clausal,0,There are four clubs.,,"[1, 9, 6]",,True,There are four stars.,1,"[0, 0, 0]","[0, 1]",undefined
8.833416666666666,,2,1,0,1187,0,1,"[0, 0, 0]","[2, 9, 3]",,True,,There are four ticks.,3613,"[7, 4, 6]",1,filler,"[0, 1]",True,exh-clausal,1,There are four hearts.,,"[4, 1, 5]",,True,There are four circles.,0,"[0, 0, 0]","[1, 0]",undefined
8.833416666666666,,2,0,1,2028,1,1,"[4, 0, 0]","[6, 5, 1]",,True,,Some of the symbols are stars.,3946,"[10, 4, 6]",1,filler,"[0, 1]",False,exh-clausal,0,0 + 0 = ?,,"[0, 0, 0]",,False,4 + 6 = ?,3,"[9, 0, 0]","[0, 1]",undefined
8.833416666666666,,2,0,0,6956,1,0,"[3, 0, 0]","[3, 6, 1]",,False,,Some of the symbols are spades.,8932,"[13, 9, 4]",1,filler,"[1, 0]",False,exh-clausal,1,9 + 9 = ?,,"[18, 9, 9]",,False,9 + 4 = ?,3,"[1, 0, 0]","[0, 1]",undefined
8.833416666666666,,2,2,0,1214,0,1,"[0, 0, 0]","[3, 5, 2]",,True,,There is a spade.,3396,"[4, 5, 3]",1,filler,"[0, 1]",True,exh-clausal,1,There is a circle.,,"[7, 8, 9]",,True,There is a heart.,1,"[0, 0, 0]","[1, 0]",undefined
8.833416666666666,,2,2,1,1263,0,0,"[0, 0, 0]","[6, 9, 0]",,False,,There is a star.,3148,"[2, 3, 0]",0,response,"[1, 0]",False,exh-clausal,0,There is a club.,,"[1, 6, 2]",,True,There is a tick.,1,"[0, 0, 0]","[1, 0]",undefined
8.833416666666666,,2,1,0,856,0,1,"[0, 0, 0]","[7, 8, 9]",,True,,There are four circles.,2948,"[3, 7, 9]",1,response,"[0, 1]",True,exh-clausal,1,"There are four stars, but there are no more than four stars.",,"[6, 9, 7]",,True,"There are four spades, but there are no more than four spades.",2,"[0, 0, 0]","[1, 0]",undefined
8.833416666666666,,2,0,0,1439,1,0,"[0, 0, 0]","[2, 4, 7]",,False,,Some of the symbols are ticks.,3075,"[6, 3, 8]",1,filler,"[1, 0]",False,exh-clausal,1,Some of the symbols are stars.,,"[6, 5, 9]",,False,Some of the symbols are stars.,1,"[0, 0, 0]","[0, 1]",undefined
8.833416666666666,,2,2,1,1737,1,1,"[0, 0, 0]","[0, 4, 7]",,True,,There is a diamond.,4141,"[1, 8, 4]",1,response,"[0, 1]",True,exh-clausal,1,There is a circle.,,"[7, 3, 2]",,True,There is a club.,0,"[0, 0, 0]","[0, 1]",undefined
8.833416666666666,,2,2,0,1700,0,1,"[0, 0, 0]","[3, 4, 2]",,True,,There is a spade.,4588,"[9, 5, 0]",1,filler,"[0, 1]",True,exh-clausal,1,There is a club.,,"[1, 9, 2]",,True,There is a triangle.,0,"[0, 0, 0]","[1, 0]",undefined
8.833416666666666,,2,0,1,1226,1,1,"[0, 0, 0]","[2, 0, 3]",,True,,Some of the symbols are ticks.,3866,"[4, 7, 9]",1,filler,"[0, 1]",True,exh-clausal,1,Some of the symbols are diamonds.,,"[0, 1, 6]",,True,Some of the symbols are hearts.,0,"[0, 0, 0]","[0, 1]",undefined
8.833416666666666,,2,2,0,1212,0,0,"[0, 0, 0]","[6, 3, 0]",,True,,There is a star.,4076,"[0, 3, 2]",1,filler,"[1, 0]",True,exh-clausal,0,There is a circle.,,"[7, 1, 3]",,True,There is a diamond.,1,"[0, 0, 0]","[1, 0]",undefined
8.833416666666666,,2,1,1,1566,0,1,"[9, 0, 0]","[2, 7, 5]",,False,,There are four ticks.,4448,"[10, 8, 2]",1,response,"[0, 1]",False,exh-clausal,0,7 + 9 = ?,,"[16, 7, 9]",,False,8 + 2 = ?,3,"[6, 0, 0]","[1, 0]",undefined
8.833416666666666,,2,2,1,847,1,1,"[0, 0, 0]","[2, 4, 7]",,True,,There is a tick.,2669,"[8, 6, 5]",0,response,"[0, 1]",True,exh-clausal,1,There is a circle.,,"[7, 1, 9]",,True,There is a note.,1,"[0, 0, 0]","[0, 1]",undefined
8.833416666666666,,2,2,0,1106,0,1,"[0, 0, 0]","[9, 2, 4]",,True,,There is a triangle.,5013,"[4, 6, 5]",1,response,"[0, 1]",True,exh-clausal,1,"There is a circle, but there is nothing besides a circle.",,"[7, 1, 5]",,True,"There is a heart, but there is nothing besides a heart.",2,"[0, 0, 0]","[1, 0]",undefined
8.833416666666666,,2,1,1,1029,1,0,"[0, 0, 0]","[5, 8, 7]",,True,,There are four squares.,3073,"[4, 9, 2]",0,response,"[1, 0]",True,exh-clausal,0,There are four ticks.,,"[2, 7, 1]",,True,There are four hearts.,0,"[0, 0, 0]","[0, 1]",undefined
8.833416666666666,,2,1,0,1496,0,1,"[7, 0, 0]","[2, 0, 8]",,True,,There are four ticks.,3823,"[5, 5, 0]",1,response,"[0, 1]",True,exh-clausal,1,5 + 4 = ?,,"[9, 5, 4]",,True,5 + 0 = ?,3,"[4, 0, 0]","[1, 0]",undefined
8.833416666666666,,2,0,0,1177,1,1,"[8, 0, 0]","[2, 8, 9]",,False,,Some of the symbols are ticks.,3543,"[7, 0, 7]",1,filler,"[0, 1]",False,exh-clausal,0,1 + 1 = ?,,"[2, 1, 1]",,False,0 + 7 = ?,3,"[1, 0, 0]","[0, 1]",undefined
8.833416666666666,,2,2,1,929,0,1,"[0, 0, 0]","[3, 7, 9]",,False,,There is a spade.,3076,"[7, 2, 6]",0,filler,"[0, 1]",False,exh-clausal,1,There is a circle.,,"[7, 9, 6]",,True,There is a circle.,1,"[0, 0, 0]","[1, 0]",undefined
8.833416666666666,,2,2,1,1011,0,0,"[5, 0, 0]","[9, 6, 3]",,False,,There is a triangle.,4358,"[10, 7, 3]",0,response,"[1, 0]",False,exh-clausal,0,1 + 8 = ?,,"[9, 1, 8]",,True,7 + 3 = ?,3,"[1, 0, 0]","[1, 0]",undefined
8.833416666666666,,2,1,0,1096,0,1,"[0, 0, 0]","[6, 4, 8]",,True,,There are four stars.,3063,"[9, 7, 3]",1,response,"[0, 1]",True,exh-clausal,1,"There are four triangles, but there are no more than four triangles.",,"[9, 3, 1]",,True,"There are four triangles, but there are no more than four triangles.",2,"[0, 0, 0]","[1, 0]",undefined
8.833416666666666,,2,0,0,1404,0,1,"[0, 0, 0]","[9, 5, 2]",,True,,Some of the symbols are triangles.,3091,"[4, 0, 4]",1,response,"[0, 1]",True,exh-clausal,1,9 + 9 = ?,,"[18, 9, 9]",,True,0 + 4 = ?,3,"[5, 0, 0]","[1, 0]",undefined
8.833416666666666,,2,0,0,1086,0,0,"[0, 0, 0]","[8, 2, 7]",,True,,Some of the symbols are notes.,3292,"[8, 0, 7]",1,filler,"[1, 0]",False,exh-clausal,1,"Some of the symbols are ticks, but not all of them are ticks.",,"[2, 9, 4]",,False,"Some of the symbols are notes, but not all of them are notes.",2,"[0, 0, 0]","[1, 0]",undefined
8.833416666666666,,2,1,0,1044,1,1,"[4, 0, 0]","[5, 2, 9]",,False,,There are four squares.,3299,"[7, 6, 1]",1,filler,"[0, 1]",False,exh-clausal,1,0 + 2 = ?,,"[2, 0, 2]",,True,6 + 1 = ?,3,"[3, 0, 0]","[0, 1]",undefined
8.833416666666666,,2,1,1,942,1,0,"[0, 0, 0]","[1, 2, 8]",,True,,There are four clubs.,2899,"[0, 4, 6]",1,response,"[1, 0]",True,exh-clausal,0,There are four squares.,,"[5, 3, 6]",,True,There are four diamonds.,1,"[0, 0, 0]","[0, 1]",undefined
8.833416666666666,,2,1,0,749,0,0,"[0, 0, 0]","[7, 4, 8]",,True,,There are four circles.,2493,"[9, 2, 4]",1,filler,"[1, 0]",True,exh-clausal,0,"There are four circles, but there are no more than four circles.",,"[7, 8, 5]",,True,"There are four triangles, but there are no more than four triangles.",2,"[0, 0, 0]","[1, 0]",undefined
8.833416666666666,,2,0,0,729,0,0,"[0, 0, 0]","[2, 3, 5]",,True,,Some of the symbols are ticks.,2547,"[6, 3, 9]",1,filler,"[1, 0]",True,exh-clausal,0,Some of the symbols are diamonds.,,"[0, 5, 3]",,True,Some of the symbols are stars.,1,"[0, 0, 0]","[1, 0]",undefined
8.833416666666666,,2,0,0,1751,0,0,"[1, 0, 0]","[9, 7, 6]",,True,,Some of the symbols are triangles.,4595,"[7, 3, 4]",0,response,"[1, 0]",False,exh-clausal,1,9 + 8 = ?,,"[17, 9, 8]",,False,3 + 4 = ?,3,"[5, 0, 0]","[1, 0]",undefined
8.833416666666666,,2,1,1,1844,1,0,"[0, 0, 0]","[0, 3, 7]",,True,,There are four diamonds.,4097,"[9, 3, 0]",1,filler,"[1, 0]",True,exh-clausal,0,"There are four diamonds, but there are no more than four diamonds.",,"[0, 4, 3]",,True,"There are four triangles, but there are no more than four triangles.",2,"[0, 0, 0]","[0, 1]",undefined
8.833416666666666,,2,2,1,1396,1,0,"[9, 0, 0]","[1, 9, 7]",,True,,There is a club.,3715,"[6, 0, 6]",0,response,"[1, 0]",True,exh-clausal,0,6 + 6 = ?,,"[12, 6, 6]",,True,0 + 6 = ?,3,"[5, 0, 0]","[0, 1]",undefined
8.833416666666666,,2,1,1,1383,1,0,"[0, 0, 0]","[6, 1, 8]",,True,,There are four stars.,3860,"[1, 8, 2]",1,filler,"[1, 0]",True,exh-clausal,0,"There are four circles, but there are no more than four circles.",,"[7, 4, 5]",,True,"There are four clubs, but there are no more than four clubs.",2,"[0, 0, 0]","[0, 1]",undefined
8.833416666666666,,2,0,1,866,1,1,"[9, 0, 0]","[1, 0, 6]",,True,,Some of the symbols are clubs.,2843,"[4, 2, 2]",0,filler,"[0, 1]",False,exh-clausal,0,5 + 8 = ?,,"[13, 5, 8]",,False,2 + 2 = ?,3,"[8, 0, 0]","[0, 1]",undefined
10.850116666666667,Elizabeth,3,,,,,,,,,,"[0, 'Elizabeth']",,,,,,,,,,,1,,bot_check,,,,,,undefined
10.850116666666667,,3,2,0,3267,1,1,"[6, 0, 0]","[7, 0, 4]",,False,,There is a circle.,8248,"[11, 6, 5]",1,response,"[0, 1]",False,exh-clausal,1,2 + 6 = ?,,"[8, 2, 6]",,True,6 + 5 = ?,3,"[5, 0, 0]","[0, 1]",undefined
10.850116666666667,,3,2,1,1607,1,0,"[0, 0, 0]","[5, 9, 3]",,True,,There is a square.,5084,"[3, 5, 7]",1,filler,"[1, 0]",True,exh-clausal,0,There is a spade.,,"[3, 7, 5]",,True,There is a spade.,1,"[0, 0, 0]","[0, 1]",undefined
10.850116666666667,,3,1,1,1729,1,0,"[0, 0, 0]","[1, 5, 7]",,True,,There are four clubs.,6843,"[4, 5, 3]",1,filler,"[1, 0]",True,exh-clausal,0,There are four circles.,,"[7, 0, 5]",,True,There are four hearts.,0,"[0, 0, 0]","[0, 1]",undefined
10.850116666666667,,3,1,1,4156,1,0,"[0, 0, 0]","[8, 6, 4]",,True,,There are four notes.,9568,"[7, 2, 5]",1,response,"[1, 0]",True,exh-clausal,0,"There are four notes, but there are no more than four notes.",,"[8, 1, 0]",,True,"There are four circles, but there are no more than four circles.",2,"[0, 0, 0]","[0, 1]",undefined
10.850116666666667,,3,2,1,1382,1,0,"[0, 0, 0]","[0, 7, 6]",,True,,There is a diamond.,6327,"[5, 9, 1]",1,filler,"[1, 0]",True,exh-clausal,0,"There is a spade, but there is nothing besides a spade.",,"[3, 4, 2]",,True,"There is a square, but there is nothing besides a square.",2,"[0, 0, 0]","[0, 1]",undefined
10.850116666666667,,3,2,1,3033,0,1,"[4, 0, 0]","[4, 7, 0]",,False,,There is a heart.,5793,"[3, 2, 1]",1,response,"[0, 1]",False,exh-clausal,0,7 + 7 = ?,,"[14, 7, 7]",,False,2 + 1 = ?,3,"[4, 0, 0]","[1, 0]",undefined
10.850116666666667,,3,2,0,1615,1,1,"[3, 0, 0]","[0, 9, 6]",,False,,There is a diamond.,4919,"[3, 0, 3]",1,filler,"[0, 1]",False,exh-clausal,1,9 + 7 = ?,,"[16, 9, 7]",,True,0 + 3 = ?,3,"[5, 0, 0]","[0, 1]",undefined
10.850116666666667,,3,2,0,1801,0,1,"[6, 0, 0]","[8, 0, 9]",,True,,There is a note.,6401,"[10, 8, 2]",1,response,"[0, 1]",True,exh-clausal,1,5 + 7 = ?,,"[12, 5, 7]",,True,8 + 2 = ?,3,"[3, 0, 0]","[1, 0]",undefined
10.850116666666667,,3,2,1,1570,1,1,"[3, 0, 0]","[8, 1, 6]",,True,,There is a note.,4991,"[14, 5, 9]",1,filler,"[0, 1]",False,exh-clausal,0,1 + 8 = ?,,"[9, 1, 8]",,False,5 + 9 = ?,3,"[0, 0, 0]","[0, 1]",undefined
10.850116666666667,,3,2,1,1922,1,0,"[0, 0, 0]","[1, 2, 4]",,True,,There is a club.,4249,"[8, 1, 7]",1,filler,"[1, 0]",True,exh-clausal,0,6 + 7 = ?,,"[13, 6, 7]",,True,1 + 7 = ?,3,"[5, 0, 0]","[0, 1]",undefined
10.850116666666667,,3,2,0,1692,0,0,"[0, 0, 0]","[7, 3, 4]",,True,,There is a circle.,6334,"[0, 3, 9]",1,response,"[1, 0]",True,exh-clausal,0,"There is a diamond, but there is nothing besides a diamond.",,"[0, 3, 5]",,True,"There is a diamond, but there is nothing besides a diamond.",2,"[0, 0, 0]","[1, 0]",undefined
10.850116666666667,,3,1,1,1839,1,0,"[0, 0, 0]","[0, 6, 5]",,True,,There are four diamonds.,4899,"[3, 2, 7]",1,response,"[1, 0]",True,exh-clausal,0,"There are four squares, but there are no more than four squares.",,"[5, 7, 3]",,True,"There are four spades, but there are no more than four spades.",2,"[0, 0, 0]","[0, 1]",undefined
10.850116666666667,,3,2,0,1431,0,0,"[0, 0, 0]","[9, 4, 1]",,True,,There is a triangle.,4307,"[3, 4, 9]",1,filler,"[1, 0]",True,exh-clausal,0,"There is a circle, but there is nothing besides a circle.",,"[7, 9, 6]",,True,"There is a spade, but there is nothing besides a spade.",2,"[0, 0, 0]","[1, 0]",undefined
10.850116666666667,,3,1,0,1330,0,0,"[0, 0, 0]","[7, 9, 3]",,True,,There are four circles.,4304,"[6, 7, 8]",1,filler,"[1, 0]",True,exh-clausal,0,"There are four triangles, but there are no more than four triangles.",,"[9, 1, 7]",,True,"There are four stars, but there are no more than four stars.",2,"[0, 0, 0]","[1, 0]",undefined
10.850116666666667,,3,1,0,1232,0,1,"[7, 0, 0]","[3, 7, 6]",,True,,There are four spades.,3519,"[10, 3, 7]",1,response,"[0, 1]",True,exh-clausal,1,1 + 2 = ?,,"[3, 1, 2]",,True,3 + 7 = ?,3,"[7, 0, 0]","[1, 0]",undefined
10.850116666666667,,3,0,0,1857,0,0,"[0, 0, 0]","[0, 4, 2]",,True,,Some of the symbols are diamonds.,10559,"[5, 8, 2]",1,filler,"[1, 0]",True,exh-clausal,0,Some of the symbols are circles.,,"[7, 1, 5]",,True,Some of the symbols are squares.,1,"[0, 0, 0]","[1, 0]",undefined
10.850116666666667,,3,2,0,1104,0,1,"[0, 0, 0]","[5, 9, 2]",,True,,There is a square.,7845,"[1, 3, 4]",1,filler,"[0, 1]",True,exh-clausal,1,There is a tick.,,"[2, 3, 4]",,True,There is a club.,1,"[0, 0, 0]","[1, 0]",undefined
10.850116666666667,,3,0,1,3016,1,0,"[0, 0, 0]","[8, 2, 4]",,True,,Some of the symbols are notes.,7263,"[2, 1, 4]",1,filler,"[1, 0]",True,exh-clausal,0,"Some of the symbols are hearts, but not all of them are hearts.",,"[4, 3, 7]",,True,"Some of the symbols are ticks, but not all of them are ticks.",2,"[0, 0, 0]","[0, 1]",undefined
10.850116666666667,,3,2,1,1321,1,0,"[0, 0, 0]","[4, 9, 1]",,True,,There is a heart.,4939,"[4, 5, 8]",1,filler,"[1, 0]",True,exh-clausal,0,There is a star.,,"[6, 3, 0]",,True,There is a heart.,0,"[0, 0, 0]","[0, 1]",undefined
10.850116666666667,,3,1,0,1487,0,0,"[0, 0, 0]","[2, 4, 6]",,True,,There are four ticks.,4266,"[2, 3, 8]",1,response,"[1, 0]",True,exh-clausal,0,There are four ticks.,,"[2, 6, 5]",,True,There are four ticks.,1,"[0, 0, 0]","[1, 0]",undefined
10.850116666666667,,3,0,1,2712,0,1,"[1, 0, 0]","[6, 1, 9]",,False,,Some of the symbols are stars.,5296,"[15, 7, 8]",1,filler,"[0, 1]",False,exh-clausal,0,4 + 1 = ?,,"[5, 4, 1]",,False,7 + 8 = ?,3,"[7, 0, 0]","[1, 0]",undefined
10.850116666666667,,3,1,0,1354,0,1,"[0, 0, 0]","[6, 1, 9]",,True,,There are four stars.,3684,"[2, 5, 7]",1,filler,"[0, 1]",True,exh-clausal,1,There are four triangles.,,"[9, 2, 8]",,True,There are four ticks.,1,"[0, 0, 0]","[1, 0]",undefined
10.850116666666667,,3,2,0,2282,0,1,"[0, 0, 0]","[4, 3, 2]",,True,,There is a heart.,5079,"[8, 5, 9]",1,filler,"[0, 1]",True,exh-clausal,1,There is a club.,,"[1, 9, 6]",,True,There is a note.,0,"[0, 0, 0]","[1, 0]",undefined
10.850116666666667,,3,0,0,1424,0,1,"[0, 0, 0]","[3, 9, 5]",,True,,Some of the symbols are spades.,4646,"[5, 6, 4]",1,filler,"[0, 1]",True,exh-clausal,1,"Some of the symbols are squares, but not all of them are squares.",,"[5, 6, 7]",,True,"Some of the symbols are squares, but not all of them are squares.",2,"[0, 0, 0]","[1, 0]",undefined
10.850116666666667,,3,1,1,1148,1,1,"[0, 0, 0]","[4, 5, 6]",,True,,There are four hearts.,3738,"[1, 8, 4]",1,response,"[0, 1]",True,exh-clausal,1,There are four squares.,,"[5, 6, 0]",,True,There are four clubs.,1,"[0, 0, 0]","[0, 1]",undefined
10.850116666666667,,3,1,0,1726,0,1,"[0, 0, 0]","[0, 1, 5]",,True,,There are four diamonds.,4811,"[4, 7, 3]",1,response,"[0, 1]",True,exh-clausal,1,There are four stars.,,"[6, 3, 5]",,True,There are four hearts.,0,"[0, 0, 0]","[1, 0]",undefined
10.850116666666667,,3,1,0,1417,0,0,"[0, 0, 0]","[0, 1, 9]",,True,,There are four diamonds.,3711,"[2, 1, 5]",1,response,"[1, 0]",True,exh-clausal,0,There are four diamonds.,,"[0, 9, 8]",,True,There are four ticks.,1,"[0, 0, 0]","[1, 0]",undefined
10.850116666666667,,3,1,0,1125,0,1,"[0, 0, 0]","[1, 8, 9]",,True,,There are four clubs.,3410,"[0, 6, 5]",1,filler,"[0, 1]",True,exh-clausal,1,There are four squares.,,"[5, 4, 0]",,True,There are four diamonds.,1,"[0, 0, 0]","[1, 0]",undefined
10.850116666666667,,3,0,0,3882,0,1,"[6, 0, 0]","[3, 1, 5]",,True,,Some of the symbols are spades.,6203,"[9, 1, 8]",1,filler,"[0, 1]",True,exh-clausal,1,4 + 7 = ?,,"[11, 4, 7]",,True,1 + 8 = ?,3,"[2, 0, 0]","[1, 0]",undefined
10.850116666666667,,3,1,0,977,0,0,"[0, 0, 0]","[9, 5, 3]",,True,,There are four triangles.,3149,"[2, 0, 1]",1,filler,"[1, 0]",True,exh-clausal,0,"There are four notes, but there are no more than four notes.",,"[8, 6, 7]",,True,"There are four ticks, but there are no more than four ticks.",2,"[0, 0, 0]","[1, 0]",undefined
10.850116666666667,,3,2,1,1042,1,1,"[0, 0, 0]","[9, 2, 3]",,True,,There is a triangle.,3328,"[7, 5, 6]",0,response,"[0, 1]",True,exh-clausal,1,There is a circle.,,"[7, 2, 3]",,True,There is a circle.,0,"[0, 0, 0]","[0, 1]",undefined
10.850116666666667,,3,0,0,1344,0,1,"[0, 0, 0]","[2, 5, 7]",,True,,Some of the symbols are ticks.,8197,"[3, 9, 5]",1,filler,"[0, 1]",True,exh-clausal,1,"Some of the symbols are hearts, but not all of them are hearts.",,"[4, 0, 1]",,True,"Some of the symbols are spades, but not all of them are spades.",2,"[0, 0, 0]","[1, 0]",undefined
10.850116666666667,,3,1,0,1366,0,1,"[9, 0, 0]","[4, 5, 0]",,True,,There are four hearts.,4029,"[10, 6, 4]",1,response,"[0, 1]",True,exh-clausal,1,6 + 1 = ?,,"[7, 6, 1]",,True,6 + 4 = ?,3,"[5, 0, 0]","[1, 0]",undefined
10.850116666666667,,3,2,0,1477,0,0,"[0, 0, 0]","[2, 0, 4]",,True,,There is a tick.,3841,"[2, 4, 9]",1,response,"[1, 0]",True,exh-clausal,0,"There is a note, but there is nothing besides a note.",,"[8, 5, 3]",,True,"There is a tick, but there is nothing besides a tick.",2,"[0, 0, 0]","[1, 0]",undefined
10.850116666666667,,3,2,1,1486,1,1,"[0, 0, 0]","[4, 2, 3]",,True,,There is a heart.,4306,"[7, 9, 1]",1,response,"[0, 1]",True,exh-clausal,1,There is a star.,,"[6, 4, 9]",,True,There is a circle.,0,"[0, 0, 0]","[0, 1]",undefined
10.850116666666667,,3,0,1,1849,1,1,"[0, 0, 0]","[6, 1, 9]",,True,,Some of the symbols are stars.,10946,"[4, 9, 7]",1,filler,"[0, 1]",True,exh-clausal,1,Some of the symbols are hearts.,,"[4, 0, 8]",,True,Some of the symbols are hearts.,0,"[0, 0, 0]","[0, 1]",undefined
10.850116666666667,,3,2,0,1370,1,0,"[6, 0, 0]","[3, 0, 2]",,False,,There is a spade.,3980,"[14, 6, 8]",1,filler,"[1, 0]",False,exh-clausal,1,7 + 0 = ?,,"[7, 7, 0]",,False,6 + 8 = ?,3,"[5, 0, 0]","[0, 1]",undefined
10.850116666666667,,3,0,1,1996,1,0,"[0, 0, 0]","[9, 7, 8]",,True,,Some of the symbols are triangles.,5776,"[2, 1, 4]",1,response,"[1, 0]",True,exh-clausal,0,"Some of the symbols are diamonds, but not all of them are diamonds.",,"[0, 7, 5]",,True,"Some of the symbols are ticks, but not all of them are ticks.",2,"[0, 0, 0]","[0, 1]",undefined
10.850116666666667,,3,1,0,1500,0,1,"[0, 0, 0]","[8, 2, 7]",,True,,There are four notes.,3795,"[3, 7, 5]",1,response,"[0, 1]",True,exh-clausal,1,There are four hearts.,,"[4, 1, 6]",,True,There are four spades.,0,"[0, 0, 0]","[1, 0]",undefined
10.850116666666667,,3,0,1,2253,1,1,"[0, 0, 0]","[4, 9, 5]",,True,,Some of the symbols are hearts.,7394,"[3, 2, 4]",1,response,"[0, 1]",True,exh-clausal,1,Some of the symbols are diamonds.,,"[0, 8, 5]",,True,Some of the symbols are spades.,0,"[0, 0, 0]","[0, 1]",undefined
10.850116666666667,,3,0,1,1582,1,0,"[9, 0, 0]","[1, 9, 6]",,True,,Some of the symbols are clubs.,5608,"[17, 8, 9]",1,response,"[1, 0]",True,exh-clausal,0,7 + 6 = ?,,"[13, 7, 6]",,True,8 + 9 = ?,3,"[2, 0, 0]","[0, 1]",undefined
10.850116666666667,,3,0,1,1632,1,1,"[0, 0, 0]","[3, 4, 0]",,True,,Some of the symbols are spades.,5156,"[6, 5, 8]",1,filler,"[0, 1]",True,exh-clausal,1,"Some of the symbols are notes, but not all of them are notes.",,"[8, 9, 2]",,True,"Some of the symbols are stars, but not all of them are stars.",2,"[0, 0, 0]","[0, 1]",undefined
10.850116666666667,,3,0,1,1877,1,0,"[0, 0, 0]","[9, 8, 5]",,True,,Some of the symbols are triangles.,5851,"[9, 5, 1]",1,filler,"[1, 0]",True,exh-clausal,0,Some of the symbols are ticks.,,"[2, 9, 7]",,True,Some of the symbols are triangles.,1,"[0, 0, 0]","[0, 1]",undefined
10.850116666666667,,3,2,1,3341,1,1,"[0, 0, 0]","[1, 9, 0]",,True,,There is a club.,6553,"[9, 0, 4]",0,response,"[0, 1]",True,exh-clausal,1,There is a note.,,"[8, 3, 4]",,True,There is a triangle.,0,"[0, 0, 0]","[0, 1]",undefined
10.850116666666667,,3,0,1,1566,1,1,"[0, 0, 0]","[2, 0, 9]",,True,,Some of the symbols are ticks.,9149,"[3, 8, 5]",1,response,"[0, 1]",True,exh-clausal,1,Some of the symbols are clubs.,,"[1, 5, 8]",,True,Some of the symbols are spades.,1,"[0, 0, 0]","[0, 1]",undefined
10.850116666666667,,3,0,1,1576,1,0,"[0, 0, 0]","[2, 8, 5]",,True,,Some of the symbols are ticks.,4467,"[7, 5, 3]",1,filler,"[1, 0]",True,exh-clausal,0,Some of the symbols are hearts.,,"[4, 5, 9]",,True,Some of the symbols are circles.,0,"[0, 0, 0]","[0, 1]",undefined
10.850116666666667,,3,2,1,1229,1,1,"[0, 0, 0]","[4, 7, 6]",,True,,There is a heart.,3956,"[1, 8, 0]",1,filler,"[0, 1]",True,exh-clausal,1,"There is a heart, but there is nothing besides a heart.",,"[4, 6, 5]",,True,"There is a club, but there is nothing besides a club.",2,"[0, 0, 0]","[0, 1]",undefined
10.850116666666667,,3,1,0,1095,1,1,"[2, 0, 0]","[7, 8, 5]",,False,,There are four circles.,3457,"[6, 3, 3]",1,filler,"[0, 1]",False,exh-clausal,1,5 + 2 = ?,,"[7, 5, 2]",,True,3 + 3 = ?,3,"[9, 0, 0]","[0, 1]",undefined
10.850116666666667,,3,0,0,2240,0,0,"[2, 0, 0]","[8, 0, 5]",,True,,Some of the symbols are notes.,5682,"[9, 8, 1]",1,filler,"[1, 0]",False,exh-clausal,1,5 + 8 = ?,,"[13, 5, 8]",,False,8 + 1 = ?,3,"[0, 0, 0]","[1, 0]",undefined
10.850116666666667,,3,2,0,1020,0,1,"[0, 0, 0]","[5, 0, 1]",,True,,There is a square.,3123,"[9, 0, 7]",1,filler,"[0, 1]",True,exh-clausal,1,There is a tick.,,"[2, 4, 7]",,True,There is a triangle.,1,"[0, 0, 0]","[1, 0]",undefined
10.850116666666667,,3,2,0,1000,0,0,"[0, 0, 0]","[0, 5, 3]",,True,,There is a diamond.,3283,"[7, 1, 2]",1,filler,"[1, 0]",True,exh-clausal,0,"There is a tick, but there is nothing besides a tick.",,"[2, 9, 5]",,True,"There is a circle, but there is nothing besides a circle.",2,"[0, 0, 0]","[1, 0]",undefined
10.850116666666667,,3,1,1,2495,1,0,"[0, 0, 0]","[2, 6, 7]",,True,,There are four ticks.,5143,"[6, 9, 0]",1,response,"[1, 0]",True,exh-clausal,0,"There are four squares, but there are no more than four squares.",,"[5, 4, 1]",,True,"There are four stars, but there are no more than four stars.",2,"[0, 0, 0]","[0, 1]",undefined
10.850116666666667,,3,1,1,1375,1,1,"[0, 0, 0]","[5, 2, 1]",,True,,There are four squares.,5469,"[0, 9, 8]",1,response,"[0, 1]",True,exh-clausal,1,There are four ticks.,,"[2, 1, 8]",,True,There are four diamonds.,0,"[0, 0, 0]","[0, 1]",undefined
10.850116666666667,,3,2,0,1475,0,1,"[0, 0, 0]","[4, 6, 3]",,True,,There is a heart.,4323,"[1, 7, 2]",1,response,"[0, 1]",True,exh-clausal,1,There is a diamond.,,"[0, 5, 8]",,True,There is a club.,1,"[0, 0, 0]","[1, 0]",undefined
10.850116666666667,,3,0,0,3050,0,1,"[0, 0, 0]","[8, 6, 4]",,True,,Some of the symbols are notes.,7069,"[9, 2, 0]",1,response,"[0, 1]",True,exh-clausal,1,Some of the symbols are stars.,,"[6, 5, 1]",,True,Some of the symbols are triangles.,0,"[0, 0, 0]","[1, 0]",undefined
10.850116666666667,,3,0,1,1408,1,1,"[0, 0, 0]","[5, 6, 0]",,True,,Some of the symbols are squares.,5781,"[6, 1, 8]",1,response,"[0, 1]",True,exh-clausal,1,Some of the symbols are hearts.,,"[4, 5, 9]",,True,Some of the symbols are stars.,1,"[0, 0, 0]","[0, 1]",undefined
10.850116666666667,,3,0,0,1228,0,0,"[0, 0, 0]","[7, 0, 8]",,True,,Some of the symbols are circles.,17609,"[4, 5, 7]",1,filler,"[1, 0]",True,exh-clausal,0,Some of the symbols are triangles.,,"[9, 4, 5]",,True,Some of the symbols are hearts.,1,"[0, 0, 0]","[1, 0]",undefined
10.850116666666667,,3,1,0,1045,0,0,"[0, 0, 0]","[7, 9, 1]",,True,,There are four circles.,3164,"[3, 9, 7]",1,filler,"[1, 0]",True,exh-clausal,0,There are four stars.,,"[6, 3, 1]",,True,There are four spades.,1,"[0, 0, 0]","[1, 0]",undefined
10.850116666666667,,3,0,0,1286,0,0,"[0, 0, 0]","[9, 6, 4]",,True,,Some of the symbols are triangles.,4523,"[1, 9, 3]",1,filler,"[1, 0]",True,exh-clausal,0,Some of the symbols are notes.,,"[8, 7, 3]",,True,Some of the symbols are clubs.,1,"[0, 0, 0]","[1, 0]",undefined
10.850116666666667,,3,1,0,1004,0,1,"[1, 0, 0]","[1, 5, 8]",,True,,There are four clubs.,4323,"[2, 0, 2]",1,filler,"[0, 1]",True,exh-clausal,1,2 + 9 = ?,,"[11, 2, 9]",,True,0 + 2 = ?,3,"[5, 0, 0]","[1, 0]",undefined
10.850116666666667,,3,1,1,1150,1,0,"[0, 0, 0]","[2, 3, 7]",,True,,There are four ticks.,2999,"[6, 0, 1]",1,response,"[1, 0]",True,exh-clausal,0,There are four ticks.,,"[2, 8, 3]",,True,There are four stars.,1,"[0, 0, 0]","[0, 1]",undefined
10.850116666666667,,3,0,0,1199,0,0,"[4, 0, 0]","[0, 2, 3]",,True,,Some of the symbols are diamonds.,3418,"[12, 3, 9]",1,filler,"[1, 0]",False,exh-clausal,1,8 + 5 = ?,,"[13, 8, 5]",,False,3 + 9 = ?,3,"[3, 0, 0]","[1, 0]",undefined
10.850116666666667,,3,2,1,3344,1,0,"[0, 0, 0]","[5, 2, 7]",,True,,There is a square.,6994,"[8, 9, 3]",0,response,"[1, 0]",True,exh-clausal,0,There is a spade.,,"[3, 6, 8]",,True,There is a note.,0,"[0, 0, 0]","[0, 1]",undefined
10.850116666666667,,3,1,0,1225,0,0,"[0, 0, 0]","[7, 4, 9]",,True,,There are four circles.,4101,"[0, 3, 9]",1,response,"[1, 0]",True,exh-clausal,0,There are four spades.,,"[3, 7, 5]",,True,There are four diamonds.,0,"[0, 0, 0]","[1, 0]",undefined
10.850116666666667,,3,1,0,1319,0,1,"[0, 0, 0]","[8, 4, 3]",,True,,There are four notes.,4094,"[6, 2, 1]",1,filler,"[0, 1]",True,exh-clausal,1,"There are four clubs, but there are no more than four clubs.",,"[1, 6, 3]",,True,"There are four stars, but there are no more than four stars.",2,"[0, 0, 0]","[1, 0]",undefined
10.850116666666667,,3,2,1,1507,0,1,"[7, 0, 0]","[7, 4, 1]",,False,,There is a circle.,4969,"[13, 8, 5]",1,response,"[0, 1]",False,exh-clausal,0,8 + 3 = ?,,"[11, 8, 3]",,False,8 + 5 = ?,3,"[6, 0, 0]","[1, 0]",undefined
10.850116666666667,,3,2,1,1404,1,0,"[0, 0, 0]","[6, 9, 0]",,True,,There is a star.,3764,"[4, 6, 9]",1,response,"[1, 0]",True,exh-clausal,0,There is a star.,,"[6, 4, 9]",,True,There is a heart.,1,"[0, 0, 0]","[0, 1]",undefined
10.850116666666667,,3,0,1,1471,1,1,"[0, 0, 0]","[9, 0, 6]",,True,,Some of the symbols are triangles.,7598,"[0, 6, 1]",1,response,"[0, 1]",True,exh-clausal,1,Some of the symbols are diamonds.,,"[0, 9, 3]",,True,Some of the symbols are diamonds.,0,"[0, 0, 0]","[0, 1]",undefined
10.850116666666667,,3,1,1,1217,1,0,"[0, 0, 0]","[2, 0, 9]",,True,,There are four ticks.,3518,"[3, 0, 9]",1,filler,"[1, 0]",True,exh-clausal,0,There are four squares.,,"[5, 4, 3]",,True,There are four spades.,0,"[0, 0, 0]","[0, 1]",undefined
10.850116666666667,,3,0,0,2036,0,0,"[2, 0, 0]","[3, 6, 5]",,True,,Some of the symbols are spades.,4493,"[9, 8, 1]",1,response,"[1, 0]",False,exh-clausal,1,6 + 3 = ?,,"[9, 6, 3]",,False,8 + 1 = ?,3,"[6, 0, 0]","[1, 0]",undefined
10.850116666666667,,3,0,0,2141,1,0,"[8, 0, 0]","[4, 3, 8]",,False,,Some of the symbols are hearts.,5322,"[10, 9, 1]",1,response,"[1, 0]",False,exh-clausal,1,7 + 8 = ?,,"[15, 7, 8]",,False,9 + 1 = ?,3,"[7, 0, 0]","[0, 1]",undefined
10.850116666666667,,3,1,1,1058,1,1,"[6, 0, 0]","[0, 8, 1]",,True,,There are four diamonds.,3271,"[12, 8, 4]",1,filler,"[0, 1]",False,exh-clausal,0,0 + 5 = ?,,"[5, 0, 5]",,False,8 + 4 = ?,3,"[4, 0, 0]","[0, 1]",undefined
10.850116666666667,,3,0,1,2453,1,1,"[0, 0, 0]","[4, 2, 5]",,True,,Some of the symbols are hearts.,6202,"[9, 5, 3]",1,response,"[0, 1]",True,exh-clausal,1,"Some of the symbols are triangles, but not all of them are triangles.",,"[9, 2, 5]",,True,"Some of the symbols are triangles, but not all of them are triangles.",2,"[0, 0, 0]","[0, 1]",undefined
10.850116666666667,,3,2,1,1167,1,1,"[0, 0, 0]","[4, 9, 0]",,True,,There is a heart.,3598,"[6, 4, 1]",1,response,"[0, 1]",True,exh-clausal,1,There is a circle.,,"[7, 4, 1]",,True,There is a star.,1,"[0, 0, 0]","[0, 1]",undefined
10.850116666666667,,3,0,0,1901,0,0,"[0, 0, 0]","[0, 2, 7]",,True,,Some of the symbols are diamonds.,5404,"[5, 1, 7]",1,response,"[1, 0]",True,exh-clausal,0,"Some of the symbols are clubs, but not all of them are clubs.",,"[1, 5, 7]",,True,"Some of the symbols are squares, but not all of them are squares.",2,"[0, 0, 0]","[1, 0]",undefined
10.850116666666667,,3,2,1,1094,1,1,"[0, 0, 0]","[5, 4, 7]",,True,,There is a square.,3414,"[8, 6, 3]",1,filler,"[0, 1]",True,exh-clausal,1,There is a star.,,"[6, 4, 7]",,True,There is a note.,0,"[0, 0, 0]","[0, 1]",undefined
10.850116666666667,,3,1,0,1236,0,0,"[0, 0, 0]","[0, 9, 7]",,True,,There are four diamonds.,3672,"[1, 5, 8]",1,filler,"[1, 0]",True,exh-clausal,0,There are four notes.,,"[8, 5, 4]",,True,There are four clubs.,0,"[0, 0, 0]","[1, 0]",undefined
10.850116666666667,,3,1,0,1364,1,0,"[3, 0, 0]","[3, 6, 1]",,False,,There are four spades.,3609,"[13, 7, 6]",1,response,"[1, 0]",False,exh-clausal,1,8 + 6 = ?,,"[14, 8, 6]",,False,7 + 6 = ?,3,"[5, 0, 0]","[0, 1]",undefined
10.850116666666667,,3,2,0,2200,0,0,"[0, 0, 0]","[8, 1, 7]",,True,,There is a note.,4670,"[8, 0, 5]",1,response,"[1, 0]",True,exh-clausal,0,"There is a square, but there is nothing besides a square.",,"[5, 0, 7]",,True,"There is a note, but there is nothing besides a note.",2,"[0, 0, 0]","[1, 0]",undefined
10.850116666666667,,3,1,0,1439,0,0,"[10, 0, 0]","[1, 6, 0]",,True,,There are four clubs.,5017,"[6, 5, 1]",1,response,"[1, 0]",False,exh-clausal,1,8 + 1 = ?,,"[9, 8, 1]",,False,5 + 1 = ?,3,"[4, 0, 0]","[1, 0]",undefined
10.850116666666667,,3,0,0,1791,0,0,"[0, 0, 0]","[8, 7, 2]",,True,,Some of the symbols are notes.,6123,"[3, 0, 5]",1,response,"[1, 0]",True,exh-clausal,0,Some of the symbols are triangles.,,"[9, 7, 6]",,True,Some of the symbols are spades.,0,"[0, 0, 0]","[1, 0]",undefined
10.850116666666667,,3,1,1,1538,1,1,"[0, 0, 0]","[2, 6, 0]",,True,,There are four ticks.,4528,"[8, 2, 6]",1,filler,"[0, 1]",True,exh-clausal,1,"There are four clubs, but there are no more than four clubs.",,"[1, 8, 7]",,True,"There are four notes, but there are no more than four notes.",2,"[0, 0, 0]","[0, 1]",undefined
10.850116666666667,,3,2,0,1248,0,1,"[0, 0, 0]","[6, 0, 4]",,True,,There is a star.,4141,"[8, 9, 5]",1,response,"[0, 1]",True,exh-clausal,1,"There is a heart, but there is nothing besides a heart.",,"[4, 7, 8]",,True,"There is a note, but there is nothing besides a note.",2,"[0, 0, 0]","[1, 0]",undefined
10.850116666666667,,3,2,1,1160,1,0,"[0, 0, 0]","[6, 0, 2]",,True,,There is a star.,5093,"[0, 2, 5]",1,filler,"[1, 0]",True,exh-clausal,0,There is a star.,,"[6, 9, 0]",,True,There is a diamond.,0,"[0, 0, 0]","[0, 1]",undefined
10.850116666666667,,3,2,0,1200,0,0,"[0, 0, 0]","[1, 2, 5]",,True,,There is a club.,3651,"[5, 8, 9]",1,filler,"[1, 0]",True,exh-clausal,0,There is a tick.,,"[2, 4, 0]",,True,There is a square.,1,"[0, 0, 0]","[1, 0]",undefined
10.850116666666667,,3,0,0,1304,0,1,"[0, 0, 0]","[4, 6, 0]",,True,,Some of the symbols are hearts.,5411,"[4, 0, 7]",1,response,"[0, 1]",True,exh-clausal,1,Some of the symbols are hearts.,,"[4, 7, 8]",,True,Some of the symbols are hearts.,1,"[0, 0, 0]","[1, 0]",undefined
10.850116666666667,,3,1,1,920,1,1,"[8, 0, 0]","[9, 1, 6]",,True,,There are four triangles.,3751,"[9, 4, 5]",1,filler,"[0, 1]",False,exh-clausal,0,9 + 1 = ?,,"[10, 9, 1]",,False,4 + 5 = ?,3,"[8, 0, 0]","[0, 1]",undefined
10.850116666666667,,3,0,0,1336,0,0,"[0, 0, 0]","[4, 0, 3]",,True,,Some of the symbols are hearts.,4803,"[3, 8, 2]",1,response,"[1, 0]",True,exh-clausal,0,"Some of the symbols are ticks, but not all of them are ticks.",,"[2, 8, 0]",,True,"Some of the symbols are spades, but not all of them are spades.",2,"[0, 0, 0]","[1, 0]",undefined
10.850116666666667,,3,0,1,1722,1,0,"[0, 0, 0]","[6, 3, 0]",,True,,Some of the symbols are stars.,4676,"[8, 7, 2]",1,response,"[1, 0]",True,exh-clausal,0,Some of the symbols are notes.,,"[8, 7, 4]",,True,Some of the symbols are notes.,1,"[0, 0, 0]","[0, 1]",undefined
10.850116666666667,,3,0,1,1630,1,1,"[0, 0, 0]","[8, 3, 9]",,True,,Some of the symbols are notes.,5096,"[8, 2, 9]",1,filler,"[0, 1]",True,exh-clausal,1,Some of the symbols are circles.,,"[7, 3, 5]",,True,Some of the symbols are notes.,0,"[0, 0, 0]","[0, 1]",undefined
10.850116666666667,,3,1,0,1309,0,0,"[0, 0, 0]","[0, 9, 7]",,True,,There are four diamonds.,3832,"[9, 0, 2]",1,response,"[1, 0]",True,exh-clausal,0,"There are four triangles, but there are no more than four triangles.",,"[9, 7, 2]",,True,"There are four triangles, but there are no more than four triangles.",2,"[0, 0, 0]","[1, 0]",undefined
10.850116666666667,,3,0,1,1411,1,1,"[0, 0, 0]","[2, 6, 1]",,True,,Some of the symbols are ticks.,4480,"[8, 6, 9]",1,filler,"[0, 1]",True,exh-clausal,1,Some of the symbols are diamonds.,,"[0, 8, 5]",,True,Some of the symbols are notes.,0,"[0, 0, 0]","[0, 1]",undefined
10.850116666666667,,3,0,1,1774,1,0,"[8, 0, 0]","[3, 8, 2]",,True,,Some of the symbols are spades.,5048,"[15, 6, 9]",1,response,"[1, 0]",True,exh-clausal,0,0 + 3 = ?,,"[3, 0, 3]",,True,6 + 9 = ?,3,"[9, 0, 0]","[0, 1]",undefined
10.850116666666667,,3,2,0,2268,0,1,"[0, 0, 0]","[6, 7, 2]",,True,,There is a star.,5450,"[9, 3, 8]",1,response,"[0, 1]",True,exh-clausal,1,There is a circle.,,"[7, 2, 4]",,True,There is a triangle.,1,"[0, 0, 0]","[1, 0]",undefined
10.850116666666667,,3,1,1,1325,1,0,"[0, 0, 0]","[3, 8, 2]",,True,,There are four spades.,3756,"[3, 1, 5]",1,filler,"[1, 0]",True,exh-clausal,0,There are four triangles.,,"[9, 0, 2]",,True,There are four spades.,1,"[0, 0, 0]","[0, 1]",undefined
10.850116666666667,,3,1,0,1741,0,1,"[0, 0, 0]","[3, 9, 2]",,True,,There are four spades.,4209,"[5, 9, 2]",1,filler,"[0, 1]",True,exh-clausal,1,There are four ticks.,,"[2, 4, 9]",,True,There are four squares.,0,"[0, 0, 0]","[1, 0]",undefined
11.282616666666666,Susan,4,,,,,,,,,,"[0, 'susan']",,,,,,,,,,,1,,bot_check,,,,,,undefined
11.282616666666666,,4,2,1,257,0,0,"[0, 0, 0]","[9, 5, 0]",,False,,There is a triangle.,777,"[9, 8, 3]",1,filler,"[1, 0]",False,exh-clausal,0,There is a triangle.,,"[9, 4, 1]",,True,There is a triangle.,0,"[0, 0, 0]","[1, 0]",undefined
11.282616666666666,,4,1,1,295,0,1,"[9, 0, 0]","[0, 9, 1]",,False,,There are four diamonds.,770,"[16, 7, 9]",1,response,"[0, 1]",False,exh-clausal,0,0 + 1 = ?,,"[1, 0, 1]",,False,7 + 9 = ?,3,"[5, 0, 0]","[1, 0]",undefined
