primeOShuffle,responseSentence,pTSentence,primeType,correctPChoices,audio,btwncondition,slide_type,primeTShuffle,pTChoice,pOwrongAnswer,response,pTSymbols,responseSymbols,goodPOChoice,primeStrength,Answer.time_in_minutes,slide_number,correctPTChoice,pTwrongAnswer,responseChoice,correctPOChoice,pOChoice,workerid,trial_type,Answer.condition,block_rt,image,pOSymbols,response_rt,goodPTChoice,pOSentence
,,,,,,,bot_check,,,,"[0, 'Elizabeth']",,,,,10.105433333333334,1,,,,,,0,,undefined,,Elizabeth,,,,
"[1, 0]",There are four spades.,There are four ticks.,1,True,,exh-clausal,,"[0, 1]",1,"[0, 0, 0]",,"[2, 5, 4]","[3, 7, 1]",0,0,10.105433333333334,,True,"[0, 0, 0]",1,True,0,0,filler,undefined,9583,,"[7, 6, 8]",2343,1,There are four circles.
"[1, 0]",Some of the symbols are clubs.,Some of the symbols are triangles.,0,True,,exh-clausal,,"[1, 0]",0,"[0, 0, 0]",,"[9, 8, 1]","[1, 3, 2]",0,1,10.105433333333334,,True,"[0, 0, 0]",1,True,0,0,filler,undefined,8839,,"[7, 6, 2]",3290,0,Some of the symbols are circles.
"[0, 1]",Some of the symbols are diamonds.,"Some of the symbols are diamonds, but not all of them are diamonds.",0,True,,exh-clausal,,"[0, 1]",1,"[0, 0, 0]",,"[0, 4, 1]","[0, 4, 5]",1,2,10.105433333333334,,True,"[0, 0, 0]",0,True,1,0,response,undefined,11162,,"[3, 5, 0]",4602,1,"Some of the symbols are spades, but not all of them are spades."
"[0, 1]",There is a circle.,3 + 7 = ?,2,False,,exh-clausal,,"[0, 1]",0,"[2, 0, 0]",,"[10, 3, 7]","[7, 2, 3]",1,3,10.105433333333334,,False,"[5, 0, 0]",0,True,1,0,response,undefined,6309,,"[8, 0, 8]",1687,1,0 + 8 = ?
"[1, 0]",Some of the symbols are hearts.,1 + 9 = ?,0,False,,exh-clausal,,"[1, 0]",1,"[5, 0, 0]",,"[10, 1, 9]","[4, 7, 3]",0,3,10.105433333333334,,False,"[3, 0, 0]",0,True,0,0,response,undefined,6033,,"[4, 0, 4]",1953,0,0 + 4 = ?
"[0, 1]",Some of the symbols are ticks.,3 + 3 = ?,0,True,,exh-clausal,,"[1, 0]",0,"[7, 0, 0]",,"[6, 3, 3]","[2, 8, 4]",1,3,10.105433333333334,,True,"[5, 0, 0]",0,True,1,0,response,undefined,4550,,"[11, 4, 7]",1926,0,4 + 7 = ?
"[1, 0]",There is a club.,There is a heart.,2,True,,exh-clausal,,"[1, 0]",0,"[0, 0, 0]",,"[4, 3, 1]","[1, 5, 8]",0,0,10.105433333333334,,True,"[0, 0, 0]",0,True,0,0,response,undefined,5688,,"[2, 9, 0]",1817,0,There is a tick.
"[0, 1]",Some of the symbols are spades.,Some of the symbols are triangles.,0,True,,exh-clausal,,"[0, 1]",1,"[0, 0, 0]",,"[9, 8, 2]","[3, 5, 8]",1,0,10.105433333333334,,True,"[0, 0, 0]",1,True,1,0,filler,undefined,7126,,"[7, 6, 8]",2190,1,Some of the symbols are circles.
"[1, 0]",There are four hearts.,9 + 7 = ?,1,True,,exh-clausal,,"[0, 1]",1,"[7, 0, 0]",,"[16, 9, 7]","[4, 3, 6]",0,3,10.105433333333334,,True,"[1, 0, 0]",0,True,0,0,response,undefined,4692,,"[6, 4, 2]",1762,1,4 + 2 = ?
"[0, 1]",There are four squares.,There are four hearts.,1,True,,exh-clausal,,"[1, 0]",0,"[0, 0, 0]",,"[4, 3, 9]","[5, 3, 4]",1,1,10.105433333333334,,True,"[0, 0, 0]",1,True,1,0,filler,undefined,5049,,"[3, 6, 9]",1589,0,There are four spades.
"[1, 0]",Some of the symbols are ticks.,8 + 2 = ?,0,True,,exh-clausal,,"[0, 1]",1,"[8, 0, 0]",,"[10, 8, 2]","[2, 6, 9]",0,3,10.105433333333334,,True,"[9, 0, 0]",1,True,0,0,filler,undefined,4180,,"[10, 6, 4]",1865,1,6 + 4 = ?
"[1, 0]",Some of the symbols are squares.,Some of the symbols are ticks.,0,True,,exh-clausal,,"[0, 1]",1,"[0, 0, 0]",,"[2, 7, 5]","[5, 7, 2]",0,1,10.105433333333334,,True,"[0, 0, 0]",0,True,0,0,response,undefined,5686,,"[7, 5, 6]",1755,1,Some of the symbols are circles.
"[0, 1]",There are four diamonds.,8 + 8 = ?,1,False,,exh-clausal,,"[1, 0]",1,"[4, 0, 0]",,"[16, 8, 8]","[0, 9, 5]",1,3,10.105433333333334,,False,"[0, 0, 0]",1,False,0,0,filler,undefined,7169,,"[4, 0, 4]",1509,0,0 + 4 = ?
"[1, 0]",Some of the symbols are triangles.,"Some of the symbols are spades, but not all of them are spades.",0,True,,exh-clausal,,"[0, 1]",1,"[0, 0, 0]",,"[3, 1, 7]","[9, 8, 1]",0,2,10.105433333333334,,True,"[0, 0, 0]",1,True,0,0,filler,undefined,7271,,"[3, 7, 4]",2084,1,"Some of the symbols are spades, but not all of them are spades."
"[1, 0]",There are four spades.,There are four spades.,1,True,,exh-clausal,,"[0, 1]",1,"[0, 0, 0]",,"[3, 1, 5]","[3, 7, 0]",0,1,10.105433333333334,,True,"[0, 0, 0]",0,True,0,0,response,undefined,4488,,"[7, 0, 8]",1763,1,There are four circles.
"[0, 1]",There are four triangles.,8 + 4 = ?,1,True,,exh-clausal,,"[1, 0]",0,"[1, 0, 0]",,"[12, 8, 4]","[9, 6, 5]",1,3,10.105433333333334,,True,"[2, 0, 0]",0,True,1,0,response,undefined,4650,,"[2, 1, 1]",2016,0,1 + 1 = ?
"[1, 0]",There is a star.,4 + 6 = ?,2,False,,exh-clausal,,"[1, 0]",1,"[2, 0, 0]",,"[10, 4, 6]","[6, 7, 4]",0,3,10.105433333333334,,False,"[1, 0, 0]",0,True,0,0,response,undefined,5322,,"[14, 8, 6]",1216,0,8 + 6 = ?
"[1, 0]",There is a tick.,0 + 7 = ?,2,True,,exh-clausal,,"[1, 0]",0,"[1, 0, 0]",,"[7, 0, 7]","[2, 8, 6]",0,3,10.105433333333334,,True,"[7, 0, 0]",1,True,0,0,filler,undefined,6980,,"[13, 9, 4]",2240,0,9 + 4 = ?
"[1, 0]",There is a club.,There is a tick.,2,True,,exh-clausal,,"[0, 1]",1,"[0, 0, 0]",,"[2, 0, 8]","[1, 2, 6]",0,0,10.105433333333334,,True,"[0, 0, 0]",0,True,0,0,response,undefined,3988,,"[3, 7, 1]",1197,1,There is a spade.
"[1, 0]",There is a star.,1 + 9 = ?,2,False,,exh-clausal,,"[1, 0]",1,"[2, 0, 0]",,"[10, 1, 9]","[6, 1, 7]",0,3,10.105433333333334,,False,"[8, 0, 0]",0,True,0,0,response,undefined,3299,,"[9, 6, 3]",1083,0,6 + 3 = ?
"[0, 1]",There is a tick.,3 + 7 = ?,2,True,,exh-clausal,,"[1, 0]",0,"[7, 0, 0]",,"[10, 3, 7]","[2, 8, 1]",1,3,10.105433333333334,,True,"[3, 0, 0]",0,True,1,0,response,undefined,3901,,"[12, 9, 3]",1096,0,9 + 3 = ?
"[1, 0]",Some of the symbols are circles.,Some of the symbols are notes.,0,True,,exh-clausal,,"[0, 1]",1,"[0, 0, 0]",,"[8, 0, 5]","[7, 8, 0]",0,1,10.105433333333334,,True,"[0, 0, 0]",0,True,0,0,response,undefined,4790,,"[7, 2, 0]",1833,1,Some of the symbols are circles.
"[1, 0]",There are four diamonds.,5 + 3 = ?,1,False,,exh-clausal,,"[1, 0]",1,"[1, 0, 0]",,"[8, 5, 3]","[0, 2, 9]",0,3,10.105433333333334,,False,"[7, 0, 0]",0,True,0,0,response,undefined,4127,,"[5, 5, 0]",1303,0,5 + 0 = ?
"[0, 1]",There are four ticks.,There are four circles.,1,True,,exh-clausal,,"[1, 0]",0,"[0, 0, 0]",,"[7, 9, 8]","[2, 3, 8]",1,1,10.105433333333334,,True,"[0, 0, 0]",0,True,1,0,response,undefined,3763,,"[7, 3, 2]",1108,0,There are four circles.
"[1, 0]",Some of the symbols are diamonds.,"Some of the symbols are diamonds, but not all of them are diamonds.",0,True,,exh-clausal,,"[0, 1]",1,"[0, 0, 0]",,"[0, 2, 3]","[0, 4, 5]",0,2,10.105433333333334,,True,"[0, 0, 0]",0,True,0,0,response,undefined,5985,,"[5, 8, 7]",2648,1,"Some of the symbols are squares, but not all of them are squares."
"[0, 1]",There is a circle.,There is a heart.,2,True,,exh-clausal,,"[0, 1]",1,"[0, 0, 0]",,"[4, 0, 6]","[7, 0, 5]",1,1,10.105433333333334,,True,"[0, 0, 0]",0,True,1,0,response,undefined,6547,,"[8, 3, 2]",1196,1,There is a note.
"[1, 0]",There are four triangles.,There are four notes.,1,True,,exh-clausal,,"[1, 0]",0,"[0, 0, 0]",,"[8, 9, 1]","[9, 0, 4]",0,1,10.105433333333334,,True,"[0, 0, 0]",1,True,0,0,filler,undefined,3298,,"[9, 7, 2]",1130,0,There are four triangles.
"[1, 0]",There are four hearts.,3 + 4 = ?,1,False,,exh-clausal,,"[1, 0]",0,"[3, 0, 0]",,"[7, 3, 4]","[4, 2, 7]",0,3,10.105433333333334,,True,"[6, 0, 0]",0,False,1,0,response,undefined,3299,,"[12, 7, 5]",1193,0,7 + 5 = ?
"[0, 1]",There are four diamonds.,"There are four triangles, but there are no more than four triangles.",1,True,,exh-clausal,,"[1, 0]",0,"[0, 0, 0]",,"[9, 0, 6]","[0, 7, 2]",1,2,10.105433333333334,,True,"[0, 0, 0]",0,True,1,0,response,undefined,7074,,"[6, 1, 5]",1856,0,"There are four stars, but there are no more than four stars."
"[0, 1]",There is a star.,2 + 2 = ?,2,False,,exh-clausal,,"[1, 0]",1,"[3, 0, 0]",,"[4, 2, 2]","[6, 9, 8]",1,3,10.105433333333334,,False,"[9, 0, 0]",1,False,0,0,filler,undefined,4089,,"[6, 3, 3]",1556,0,3 + 3 = ?
"[0, 1]",Some of the symbols are ticks.,Some of the symbols are spades.,0,True,,exh-clausal,,"[1, 0]",0,"[0, 0, 0]",,"[3, 8, 6]","[2, 1, 3]",1,0,10.105433333333334,,True,"[0, 0, 0]",1,True,1,0,filler,undefined,5587,,"[7, 9, 1]",1867,0,Some of the symbols are circles.
"[1, 0]",There is a note.,There is a circle.,2,True,,exh-clausal,,"[0, 1]",1,"[0, 0, 0]",,"[7, 2, 8]","[8, 9, 6]",0,1,10.105433333333334,,True,"[0, 0, 0]",0,True,0,0,response,undefined,4940,,"[1, 9, 0]",1394,1,There is a club.
"[1, 0]",Some of the symbols are hearts.,Some of the symbols are ticks.,0,True,,exh-clausal,,"[1, 0]",0,"[0, 0, 0]",,"[2, 3, 8]","[4, 5, 1]",0,1,10.105433333333334,,True,"[0, 0, 0]",0,True,0,0,response,undefined,4648,,"[8, 2, 7]",1359,0,Some of the symbols are notes.
"[0, 1]",Some of the symbols are squares.,Some of the symbols are stars.,0,True,,exh-clausal,,"[1, 0]",0,"[0, 0, 0]",,"[6, 0, 2]","[5, 8, 1]",1,1,10.105433333333334,,True,"[0, 0, 0]",0,True,1,0,response,undefined,4958,,"[1, 9, 5]",1186,0,Some of the symbols are clubs.
"[1, 0]",Some of the symbols are notes.,6 + 3 = ?,0,False,,exh-clausal,,"[1, 0]",1,"[3, 0, 0]",,"[9, 6, 3]","[8, 7, 6]",0,3,10.105433333333334,,False,"[8, 0, 0]",1,True,0,0,filler,undefined,4257,,"[9, 5, 4]",1655,0,5 + 4 = ?
"[0, 1]",There is a square.,7 + 8 = ?,2,True,,exh-clausal,,"[1, 0]",0,"[2, 0, 0]",,"[15, 7, 8]","[5, 0, 4]",1,3,10.105433333333334,,True,"[8, 0, 0]",1,True,1,0,filler,undefined,4293,,"[6, 3, 3]",1601,0,3 + 3 = ?
"[0, 1]",Some of the symbols are circles.,"Some of the symbols are squares, but not all of them are squares.",0,True,,exh-clausal,,"[1, 0]",0,"[0, 0, 0]",,"[5, 2, 3]","[7, 5, 0]",1,2,10.105433333333334,,True,"[0, 0, 0]",0,True,1,0,response,undefined,8221,,"[7, 9, 6]",4679,0,"Some of the symbols are circles, but not all of them are circles."
"[0, 1]",There are four spades.,9 + 0 = ?,1,False,,exh-clausal,,"[0, 1]",1,"[5, 0, 0]",,"[9, 9, 0]","[3, 6, 5]",1,3,10.105433333333334,,True,"[1, 0, 0]",1,False,0,0,filler,undefined,4982,,"[11, 4, 7]",1988,1,4 + 7 = ?
"[1, 0]",Some of the symbols are diamonds.,Some of the symbols are diamonds.,0,True,,exh-clausal,,"[1, 0]",0,"[0, 0, 0]",,"[0, 9, 4]","[0, 7, 3]",0,0,10.105433333333334,,True,"[0, 0, 0]",0,True,0,0,response,undefined,5309,,"[3, 4, 5]",2203,0,Some of the symbols are spades.
"[0, 1]",There are four clubs.,"There are four clubs, but there are no more than four clubs.",1,True,,exh-clausal,,"[1, 0]",0,"[0, 0, 0]",,"[1, 5, 9]","[1, 2, 8]",1,2,10.105433333333334,,True,"[0, 0, 0]",0,True,1,0,response,undefined,6022,,"[3, 7, 9]",1836,0,"There are four spades, but there are no more than four spades."
"[1, 0]",There is a heart.,"There is a square, but there is nothing besides a square.",2,True,,exh-clausal,,"[1, 0]",0,"[0, 0, 0]",,"[5, 4, 0]","[4, 9, 7]",0,2,10.105433333333334,,True,"[0, 0, 0]",1,True,0,0,filler,undefined,5966,,"[0, 6, 4]",1701,0,"There is a diamond, but there is nothing besides a diamond."
"[1, 0]",There are four circles.,There are four spades.,1,True,,exh-clausal,,"[0, 1]",1,"[0, 0, 0]",,"[3, 2, 6]","[7, 1, 5]",0,0,10.105433333333334,,True,"[0, 0, 0]",1,True,0,0,filler,undefined,4259,,"[0, 2, 4]",1321,1,There are four diamonds.
"[1, 0]",There are four spades.,"There are four stars, but there are no more than four stars.",1,True,,exh-clausal,,"[1, 0]",0,"[0, 0, 0]",,"[6, 0, 7]","[3, 0, 1]",0,2,10.105433333333334,,True,"[0, 0, 0]",1,True,0,0,filler,undefined,4782,,"[8, 2, 5]",1603,0,"There are four notes, but there are no more than four notes."
"[0, 1]",Some of the symbols are spades.,5 + 6 = ?,0,False,,exh-clausal,,"[0, 1]",1,"[4, 0, 0]",,"[11, 5, 6]","[3, 8, 9]",1,3,10.105433333333334,,True,"[6, 0, 0]",1,False,0,0,filler,undefined,5338,,"[13, 9, 4]",2472,1,9 + 4 = ?
"[1, 0]",Some of the symbols are clubs.,Some of the symbols are squares.,0,True,,exh-clausal,,"[0, 1]",1,"[0, 0, 0]",,"[5, 6, 8]","[1, 2, 3]",0,0,10.105433333333334,,True,"[0, 0, 0]",1,True,0,0,filler,undefined,4048,,"[4, 9, 2]",1433,1,Some of the symbols are hearts.
"[1, 0]",Some of the symbols are triangles.,"Some of the symbols are triangles, but not all of them are triangles.",0,True,,exh-clausal,,"[1, 0]",0,"[0, 0, 0]",,"[9, 4, 1]","[9, 8, 5]",0,2,10.105433333333334,,True,"[0, 0, 0]",1,True,0,0,filler,undefined,9281,,"[3, 0, 4]",2361,0,"Some of the symbols are spades, but not all of them are spades."
"[0, 1]",There are four squares.,There are four squares.,1,True,,exh-clausal,,"[0, 1]",1,"[0, 0, 0]",,"[5, 7, 3]","[5, 9, 1]",1,0,10.105433333333334,,True,"[0, 0, 0]",0,True,1,0,response,undefined,3570,,"[0, 9, 5]",1078,1,There are four diamonds.
"[1, 0]",There are four triangles.,There are four diamonds.,1,True,,exh-clausal,,"[1, 0]",0,"[0, 0, 0]",,"[0, 3, 7]","[9, 8, 0]",0,1,10.105433333333334,,True,"[0, 0, 0]",0,True,0,0,response,undefined,3218,,"[8, 6, 4]",1076,0,There are four notes.
"[1, 0]",There are four stars.,"There are four circles, but there are no more than four circles.",1,True,,exh-clausal,,"[1, 0]",0,"[0, 0, 0]",,"[7, 1, 0]","[6, 2, 1]",0,2,10.105433333333334,,True,"[0, 0, 0]",0,True,0,0,response,undefined,7471,,"[3, 7, 8]",1596,0,"There are four spades, but there are no more than four spades."
"[1, 0]",Some of the symbols are circles.,"Some of the symbols are circles, but not all of them are circles.",0,True,,exh-clausal,,"[0, 1]",1,"[0, 0, 0]",,"[7, 6, 4]","[7, 3, 9]",0,2,10.105433333333334,,True,"[0, 0, 0]",1,True,0,0,filler,undefined,6084,,"[2, 4, 7]",1973,1,"Some of the symbols are ticks, but not all of them are ticks."
"[0, 1]",There is a note.,"There is a spade, but there is nothing besides a spade.",2,True,,exh-clausal,,"[1, 0]",0,"[0, 0, 0]",,"[3, 9, 7]","[8, 4, 2]",1,2,10.105433333333334,,True,"[0, 0, 0]",1,True,1,0,filler,undefined,7434,,"[5, 4, 9]",2873,0,"There is a square, but there is nothing besides a square."
"[0, 1]",Some of the symbols are stars.,Some of the symbols are triangles.,0,True,,exh-clausal,,"[0, 1]",1,"[0, 0, 0]",,"[9, 3, 6]","[6, 8, 3]",1,0,10.105433333333334,,True,"[0, 0, 0]",0,True,1,0,response,undefined,4621,,"[7, 0, 8]",1277,1,Some of the symbols are circles.
"[1, 0]",There is a star.,There is a tick.,2,True,,exh-clausal,,"[1, 0]",0,"[0, 0, 0]",,"[2, 5, 8]","[6, 1, 8]",0,1,10.105433333333334,,True,"[0, 0, 0]",1,True,0,0,filler,undefined,4802,,"[3, 9, 7]",1252,0,There is a spade.
"[0, 1]",Some of the symbols are hearts.,"Some of the symbols are hearts, but not all of them are hearts.",0,True,,exh-clausal,,"[1, 0]",0,"[0, 0, 0]",,"[4, 1, 7]","[4, 2, 0]",1,2,10.105433333333334,,True,"[0, 0, 0]",1,True,1,0,filler,undefined,5912,,"[9, 6, 5]",1551,0,"Some of the symbols are triangles, but not all of them are triangles."
"[0, 1]",There is a tick.,There is a club.,2,True,,exh-clausal,,"[1, 0]",0,"[0, 0, 0]",,"[1, 2, 4]","[2, 1, 5]",1,0,10.105433333333334,,True,"[0, 0, 0]",1,True,1,0,filler,undefined,4910,,"[5, 3, 9]",1425,0,There is a square.
"[0, 1]",There are four notes.,There are four clubs.,1,True,,exh-clausal,,"[1, 0]",0,"[0, 0, 0]",,"[1, 0, 7]","[8, 6, 9]",1,0,10.105433333333334,,True,"[0, 0, 0]",0,True,1,0,response,undefined,3375,,"[2, 0, 6]",1057,0,There are four ticks.
"[0, 1]",Some of the symbols are notes.,Some of the symbols are spades.,0,True,,exh-clausal,,"[0, 1]",1,"[0, 0, 0]",,"[3, 8, 2]","[8, 0, 7]",1,1,10.105433333333334,,True,"[0, 0, 0]",1,True,1,0,filler,undefined,5627,,"[0, 2, 5]",2500,1,Some of the symbols are diamonds.
"[1, 0]",There are four triangles.,There are four notes.,1,True,,exh-clausal,,"[0, 1]",1,"[0, 0, 0]",,"[8, 0, 7]","[9, 6, 8]",0,0,10.105433333333334,,True,"[0, 0, 0]",0,True,0,0,response,undefined,3725,,"[9, 7, 0]",1127,1,There are four triangles.
"[0, 1]",Some of the symbols are squares.,5 + 2 = ?,0,False,,exh-clausal,,"[0, 1]",0,"[8, 0, 0]",,"[7, 5, 2]","[5, 0, 4]",1,3,10.105433333333334,,False,"[8, 0, 0]",0,True,1,0,response,undefined,3485,,"[11, 8, 3]",1194,1,8 + 3 = ?
"[0, 1]",There are four diamonds.,"There are four clubs, but there are no more than four clubs.",1,True,,exh-clausal,,"[0, 1]",1,"[0, 0, 0]",,"[1, 3, 7]","[0, 8, 4]",1,2,10.105433333333334,,True,"[0, 0, 0]",1,True,1,0,filler,undefined,5495,,"[7, 9, 4]",1757,1,"There are four circles, but there are no more than four circles."
"[1, 0]",Some of the symbols are hearts.,8 + 7 = ?,0,True,,exh-clausal,,"[0, 1]",1,"[5, 0, 0]",,"[15, 8, 7]","[4, 0, 1]",0,3,10.105433333333334,,True,"[3, 0, 0]",0,True,0,0,response,undefined,4596,,"[8, 0, 8]",1551,1,0 + 8 = ?
"[1, 0]",There is a club.,There is a spade.,2,True,,exh-clausal,,"[0, 1]",1,"[0, 0, 0]",,"[3, 7, 8]","[1, 4, 9]",0,0,10.105433333333334,,True,"[0, 0, 0]",0,True,0,0,response,undefined,4693,,"[5, 4, 6]",1840,1,There is a square.
"[1, 0]",There are four spades.,"There are four spades, but there are no more than four spades.",1,True,,exh-clausal,,"[0, 1]",1,"[0, 0, 0]",,"[3, 8, 6]","[3, 8, 0]",0,2,10.105433333333334,,True,"[0, 0, 0]",0,True,0,0,response,undefined,4690,,"[1, 0, 9]",1488,1,"There are four clubs, but there are no more than four clubs."
"[1, 0]",Some of the symbols are squares.,Some of the symbols are stars.,0,True,,exh-clausal,,"[1, 0]",0,"[0, 0, 0]",,"[6, 5, 0]","[5, 6, 2]",0,0,10.105433333333334,,True,"[0, 0, 0]",1,True,0,0,filler,undefined,5750,,"[8, 9, 4]",1511,0,Some of the symbols are notes.
"[0, 1]",There is a triangle.,"There is a club, but there is nothing besides a club.",2,True,,exh-clausal,,"[1, 0]",0,"[0, 0, 0]",,"[1, 2, 9]","[9, 6, 3]",1,2,10.105433333333334,,True,"[0, 0, 0]",0,True,1,0,response,undefined,4113,,"[2, 8, 0]",1315,0,"There is a tick, but there is nothing besides a tick."
"[0, 1]",There are four triangles.,There are four diamonds.,1,True,,exh-clausal,,"[0, 1]",1,"[0, 0, 0]",,"[0, 4, 6]","[9, 6, 7]",1,0,10.105433333333334,,True,"[0, 0, 0]",1,True,1,0,filler,undefined,3673,,"[6, 9, 7]",1221,1,There are four stars.
"[0, 1]",There is a spade.,There is a square.,2,True,,exh-clausal,,"[0, 1]",1,"[0, 0, 0]",,"[5, 7, 6]","[3, 2, 0]",1,0,10.105433333333334,,True,"[0, 0, 0]",0,True,1,0,response,undefined,4095,,"[8, 1, 5]",1559,1,There is a note.
"[0, 1]",Some of the symbols are stars.,9 + 4 = ?,0,False,,exh-clausal,,"[0, 1]",1,"[6, 0, 0]",,"[13, 9, 4]","[6, 4, 5]",1,3,10.105433333333334,,True,"[4, 0, 0]",1,False,0,0,filler,undefined,4319,,"[11, 3, 8]",1921,1,3 + 8 = ?
"[0, 1]",There is a tick.,There is a circle.,2,True,,exh-clausal,,"[0, 1]",1,"[0, 0, 0]",,"[7, 4, 3]","[2, 3, 1]",1,1,10.105433333333334,,True,"[0, 0, 0]",1,True,1,0,filler,undefined,4377,,"[9, 0, 5]",1835,1,There is a triangle.
"[1, 0]",There are four triangles.,There are four diamonds.,1,True,,exh-clausal,,"[0, 1]",1,"[0, 0, 0]",,"[0, 1, 7]","[9, 3, 8]",0,1,10.105433333333334,,True,"[0, 0, 0]",1,True,0,0,filler,undefined,3802,,"[9, 1, 5]",1244,1,There are four triangles.
"[0, 1]",Some of the symbols are stars.,Some of the symbols are spades.,0,True,,exh-clausal,,"[0, 1]",1,"[0, 0, 0]",,"[3, 7, 6]","[6, 9, 4]",1,0,10.105433333333334,,True,"[0, 0, 0]",0,True,1,0,response,undefined,3944,,"[4, 3, 0]",1251,1,Some of the symbols are hearts.
"[0, 1]",Some of the symbols are spades.,Some of the symbols are ticks.,0,True,,exh-clausal,,"[1, 0]",0,"[0, 0, 0]",,"[2, 1, 8]","[3, 8, 2]",1,1,10.105433333333334,,True,"[0, 0, 0]",1,True,1,0,filler,undefined,6142,,"[5, 4, 3]",3033,0,Some of the symbols are squares.
"[0, 1]",There is a note.,There is a square.,2,True,,exh-clausal,,"[1, 0]",0,"[0, 0, 0]",,"[5, 3, 6]","[8, 5, 1]",1,0,10.105433333333334,,True,"[0, 0, 0]",1,True,1,0,filler,undefined,4761,,"[0, 5, 4]",1956,0,There is a diamond.
"[1, 0]",There is a spade.,There is a note.,2,True,,exh-clausal,,"[1, 0]",0,"[0, 0, 0]",,"[8, 0, 2]","[3, 0, 1]",0,1,10.105433333333334,,True,"[0, 0, 0]",1,True,0,0,filler,undefined,4806,,"[1, 4, 3]",1616,0,There is a club.
"[1, 0]",There are four hearts.,2 + 7 = ?,1,False,,exh-clausal,,"[0, 1]",0,"[2, 0, 0]",,"[9, 2, 7]","[4, 7, 0]",0,3,10.105433333333334,,False,"[1, 0, 0]",1,False,1,0,filler,undefined,5553,,"[16, 7, 9]",1267,1,7 + 9 = ?
"[0, 1]",Some of the symbols are circles.,Some of the symbols are stars.,0,True,,exh-clausal,,"[0, 1]",1,"[0, 0, 0]",,"[6, 7, 0]","[7, 5, 0]",1,0,10.105433333333334,,True,"[0, 0, 0]",0,True,1,0,response,undefined,3854,,"[1, 0, 3]",1276,1,Some of the symbols are clubs.
"[1, 0]",There is a club.,There is a tick.,2,True,,exh-clausal,,"[0, 1]",1,"[0, 0, 0]",,"[2, 0, 1]","[1, 4, 2]",0,1,10.105433333333334,,True,"[0, 0, 0]",0,True,0,0,response,undefined,4101,,"[8, 2, 1]",1321,1,There is a note.
"[1, 0]",There is a club.,"There is a square, but there is nothing besides a square.",2,True,,exh-clausal,,"[1, 0]",0,"[0, 0, 0]",,"[5, 4, 7]","[1, 7, 8]",0,2,10.105433333333334,,True,"[0, 0, 0]",0,True,0,0,response,undefined,7142,,"[3, 9, 2]",1641,0,"There is a spade, but there is nothing besides a spade."
"[0, 1]",Some of the symbols are stars.,"Some of the symbols are diamonds, but not all of them are diamonds.",0,True,,exh-clausal,,"[1, 0]",0,"[0, 0, 0]",,"[0, 3, 5]","[6, 5, 2]",1,2,10.105433333333334,,True,"[0, 0, 0]",0,True,1,0,response,undefined,5893,,"[9, 4, 0]",1459,0,"Some of the symbols are triangles, but not all of them are triangles."
"[0, 1]",There are four ticks.,There are four triangles.,1,True,,exh-clausal,,"[0, 1]",1,"[0, 0, 0]",,"[9, 2, 1]","[2, 0, 7]",1,1,10.105433333333334,,True,"[0, 0, 0]",0,True,1,0,response,undefined,3307,,"[8, 2, 5]",1105,1,There are four notes.
"[0, 1]",There is a circle.,"There is a note, but there is nothing besides a note.",2,True,,exh-clausal,,"[0, 1]",1,"[0, 0, 0]",,"[8, 1, 0]","[7, 0, 1]",1,2,10.105433333333334,,True,"[0, 0, 0]",0,True,1,0,response,undefined,5478,,"[0, 6, 5]",2142,1,"There is a diamond, but there is nothing besides a diamond."
"[0, 1]",Some of the symbols are notes.,Some of the symbols are notes.,0,True,,exh-clausal,,"[1, 0]",0,"[0, 0, 0]",,"[8, 0, 3]","[8, 5, 4]",1,1,10.105433333333334,,True,"[0, 0, 0]",1,True,1,0,filler,undefined,5933,,"[0, 2, 8]",1608,0,Some of the symbols are diamonds.
"[0, 1]",There is a triangle.,There is a circle.,2,True,,exh-clausal,,"[1, 0]",0,"[0, 0, 0]",,"[7, 4, 5]","[9, 2, 1]",1,1,10.105433333333334,,True,"[0, 0, 0]",1,True,1,0,filler,undefined,4211,,"[5, 9, 4]",1712,0,There is a square.
"[1, 0]",There are four squares.,There are four spades.,1,True,,exh-clausal,,"[0, 1]",1,"[0, 0, 0]",,"[3, 0, 2]","[5, 8, 4]",0,0,10.105433333333334,,True,"[0, 0, 0]",1,True,0,0,filler,undefined,3852,,"[6, 0, 5]",1447,1,There are four stars.
"[1, 0]",There is a circle.,"There is a diamond, but there is nothing besides a diamond.",2,True,,exh-clausal,,"[0, 1]",1,"[0, 0, 0]",,"[0, 2, 3]","[7, 6, 1]",0,2,10.105433333333334,,True,"[0, 0, 0]",1,True,0,0,filler,undefined,5087,,"[0, 5, 2]",1515,1,"There is a diamond, but there is nothing besides a diamond."
"[1, 0]",There are four clubs.,2 + 9 = ?,1,False,,exh-clausal,,"[1, 0]",1,"[6, 0, 0]",,"[11, 2, 9]","[1, 8, 7]",0,3,10.105433333333334,,False,"[4, 0, 0]",1,True,0,0,filler,undefined,5687,,"[6, 5, 1]",1867,0,5 + 1 = ?
"[1, 0]",There is a note.,"There is a note, but there is nothing besides a note.",2,True,,exh-clausal,,"[1, 0]",0,"[0, 0, 0]",,"[8, 9, 3]","[8, 7, 1]",0,2,10.105433333333334,,True,"[0, 0, 0]",0,True,0,0,response,undefined,5553,,"[3, 7, 9]",1778,0,"There is a spade, but there is nothing besides a spade."
"[0, 1]",There is a diamond.,There is a triangle.,2,True,,exh-clausal,,"[0, 1]",1,"[0, 0, 0]",,"[9, 4, 0]","[0, 8, 3]",1,0,10.105433333333334,,True,"[0, 0, 0]",1,True,1,0,filler,undefined,4935,,"[0, 1, 2]",1667,1,There is a diamond.
"[0, 1]",There is a triangle.,"There is a star, but there is nothing besides a star.",2,True,,exh-clausal,,"[0, 1]",1,"[0, 0, 0]",,"[6, 0, 4]","[9, 2, 3]",1,2,10.105433333333334,,True,"[0, 0, 0]",1,True,1,0,filler,undefined,4288,,"[9, 5, 7]",1446,1,"There is a triangle, but there is nothing besides a triangle."
"[1, 0]",There is a star.,There is a diamond.,2,True,,exh-clausal,,"[1, 0]",0,"[0, 0, 0]",,"[0, 8, 4]","[6, 0, 8]",0,0,10.105433333333334,,True,"[0, 0, 0]",1,True,0,0,filler,undefined,4062,,"[6, 8, 2]",1252,0,There is a star.
"[1, 0]",There are four hearts.,"There are four ticks, but there are no more than four ticks.",1,True,,exh-clausal,,"[0, 1]",1,"[0, 0, 0]",,"[2, 4, 3]","[4, 8, 7]",0,2,10.105433333333334,,True,"[0, 0, 0]",1,True,0,0,filler,undefined,4537,,"[2, 3, 1]",1270,1,"There are four ticks, but there are no more than four ticks."
"[0, 1]",There are four clubs.,There are four ticks.,1,True,,exh-clausal,,"[0, 1]",1,"[0, 0, 0]",,"[2, 1, 7]","[1, 4, 2]",1,1,10.105433333333334,,True,"[0, 0, 0]",1,True,1,0,filler,undefined,3547,,"[9, 5, 0]",1330,1,There are four triangles.
"[1, 0]",There are four triangles.,"There are four diamonds, but there are no more than four diamonds.",1,True,,exh-clausal,,"[0, 1]",1,"[0, 0, 0]",,"[0, 5, 1]","[9, 3, 0]",0,2,10.105433333333334,,True,"[0, 0, 0]",1,True,0,0,filler,undefined,4184,,"[7, 0, 4]",1323,1,"There are four circles, but there are no more than four circles."
"[0, 1]",There is a heart.,There is a tick.,2,True,,exh-clausal,,"[1, 0]",0,"[0, 0, 0]",,"[2, 9, 8]","[4, 7, 8]",1,1,10.105433333333334,,True,"[0, 0, 0]",0,True,1,0,response,undefined,3943,,"[0, 3, 9]",1588,0,There is a diamond.
"[0, 1]",There are four ticks.,There are four notes.,1,True,,exh-clausal,,"[0, 1]",1,"[0, 0, 0]",,"[8, 3, 9]","[2, 8, 7]",1,0,10.105433333333334,,True,"[0, 0, 0]",0,True,1,0,response,undefined,4177,,"[2, 6, 9]",1337,1,There are four ticks.
"[0, 1]",There is a circle.,1 + 5 = ?,2,False,,exh-clausal,,"[0, 1]",1,"[9, 0, 0]",,"[6, 1, 5]","[7, 1, 8]",1,3,10.105433333333334,,True,"[9, 0, 0]",1,False,0,0,filler,undefined,5260,,"[10, 8, 2]",1680,1,8 + 2 = ?
,,,,,,,bot_check,,,,"[0, 'Margaret']",,,,,10.2756,1,,,,,,1,,undefined,,Margaret,,,,
"[1, 0]",Some of the symbols are diamonds.,Some of the symbols are stars.,0,True,,exh-clausal,,"[0, 1]",1,"[0, 0, 0]",,"[6, 7, 1]","[0, 6, 8]",0,0,10.2756,,True,"[0, 0, 0]",1,True,0,1,filler,undefined,9461,,"[9, 2, 0]",2823,1,Some of the symbols are triangles.
"[0, 1]",Some of the symbols are circles.,"Some of the symbols are triangles, but not all of them are triangles.",0,True,,exh-clausal,,"[1, 0]",0,"[0, 0, 0]",,"[9, 8, 3]","[7, 3, 0]",1,2,10.2756,,True,"[0, 0, 0]",1,True,1,1,filler,undefined,8916,,"[4, 5, 8]",1867,0,"Some of the symbols are hearts, but not all of them are hearts."
"[1, 0]",Some of the symbols are notes.,"Some of the symbols are squares, but not all of them are squares.",0,True,,exh-clausal,,"[1, 0]",0,"[0, 0, 0]",,"[5, 1, 8]","[8, 4, 3]",0,2,10.2756,,True,"[0, 0, 0]",0,True,0,1,response,undefined,7450,,"[0, 1, 3]",2124,0,"Some of the symbols are diamonds, but not all of them are diamonds."
"[0, 1]",There is a diamond.,There is a triangle.,2,True,,exh-clausal,,"[0, 1]",1,"[0, 0, 0]",,"[9, 2, 6]","[0, 1, 8]",1,1,10.2756,,True,"[0, 0, 0]",0,True,1,1,response,undefined,7248,,"[7, 3, 6]",2393,1,There is a circle.
"[1, 0]",There is a circle.,There is a star.,2,True,,exh-clausal,,"[1, 0]",0,"[0, 0, 0]",,"[6, 4, 5]","[7, 3, 8]",0,1,10.2756,,True,"[0, 0, 0]",1,True,0,1,filler,undefined,6496,,"[5, 3, 4]",1676,0,There is a square.
"[0, 1]",Some of the symbols are hearts.,Some of the symbols are clubs.,0,True,,exh-clausal,,"[1, 0]",0,"[0, 0, 0]",,"[1, 6, 5]","[4, 7, 9]",1,1,10.2756,,True,"[0, 0, 0]",0,True,1,1,response,undefined,10512,,"[2, 0, 5]",2059,0,Some of the symbols are ticks.
"[1, 0]",There are four spades.,There are four clubs.,1,True,,exh-clausal,,"[0, 1]",1,"[0, 0, 0]",,"[1, 0, 3]","[3, 0, 6]",0,0,10.2756,,True,"[0, 0, 0]",0,True,0,1,response,undefined,8881,,"[1, 3, 4]",3562,1,There are four clubs.
"[1, 0]",There are four spades.,There are four triangles.,1,True,,exh-clausal,,"[0, 1]",1,"[0, 0, 0]",,"[9, 6, 5]","[3, 6, 0]",0,1,10.2756,,True,"[0, 0, 0]",0,True,0,1,response,undefined,5107,,"[2, 7, 9]",1631,1,There are four ticks.
"[0, 1]",Some of the symbols are circles.,Some of the symbols are circles.,0,True,,exh-clausal,,"[0, 1]",1,"[0, 0, 0]",,"[7, 1, 9]","[7, 3, 4]",1,0,10.2756,,True,"[0, 0, 0]",1,True,1,1,filler,undefined,7916,,"[1, 9, 0]",1545,1,Some of the symbols are clubs.
"[0, 1]",There are four stars.,There are four circles.,1,True,,exh-clausal,,"[0, 1]",1,"[0, 0, 0]",,"[7, 1, 0]","[6, 2, 7]",1,1,10.2756,,True,"[0, 0, 0]",0,True,1,1,response,undefined,6929,,"[4, 2, 0]",2369,1,There are four hearts.
"[1, 0]",There are four squares.,There are four stars.,1,True,,exh-clausal,,"[1, 0]",0,"[0, 0, 0]",,"[6, 8, 9]","[5, 3, 7]",0,0,10.2756,,True,"[0, 0, 0]",1,True,0,1,filler,undefined,5199,,"[8, 2, 3]",1461,0,There are four notes.
"[0, 1]",Some of the symbols are stars.,Some of the symbols are clubs.,0,True,,exh-clausal,,"[1, 0]",0,"[0, 0, 0]",,"[1, 4, 7]","[6, 7, 3]",1,0,10.2756,,True,"[0, 0, 0]",1,True,1,1,filler,undefined,4687,,"[7, 0, 6]",1448,0,Some of the symbols are circles.
"[1, 0]",There is a tick.,"There is a circle, but there is nothing besides a circle.",2,True,,exh-clausal,,"[0, 1]",1,"[0, 0, 0]",,"[7, 1, 0]","[2, 4, 8]",0,2,10.2756,,True,"[0, 0, 0]",0,True,0,1,response,undefined,6842,,"[8, 4, 7]",1805,1,"There is a note, but there is nothing besides a note."
"[1, 0]",There is a heart.,There is a circle.,2,True,,exh-clausal,,"[0, 1]",1,"[0, 0, 0]",,"[7, 2, 8]","[4, 8, 2]",0,1,10.2756,,True,"[0, 0, 0]",1,True,0,1,filler,undefined,5942,,"[4, 6, 5]",2168,1,There is a heart.
"[0, 1]",There are four notes.,"There are four triangles, but there are no more than four triangles.",1,True,,exh-clausal,,"[1, 0]",0,"[0, 0, 0]",,"[9, 0, 3]","[8, 0, 7]",1,2,10.2756,,True,"[0, 0, 0]",0,True,1,1,response,undefined,6902,,"[3, 8, 6]",1796,0,"There are four spades, but there are no more than four spades."
"[1, 0]",Some of the symbols are circles.,Some of the symbols are triangles.,0,True,,exh-clausal,,"[1, 0]",0,"[0, 0, 0]",,"[9, 2, 5]","[7, 2, 8]",0,0,10.2756,,True,"[0, 0, 0]",1,True,0,1,filler,undefined,7564,,"[4, 5, 3]",3737,0,Some of the symbols are hearts.
"[1, 0]",Some of the symbols are ticks.,"Some of the symbols are circles, but not all of them are circles.",0,True,,exh-clausal,,"[1, 0]",0,"[0, 0, 0]",,"[7, 0, 2]","[2, 5, 3]",0,2,10.2756,,True,"[0, 0, 0]",0,True,0,1,response,undefined,9089,,"[8, 0, 6]",1539,0,"Some of the symbols are notes, but not all of them are notes."
"[1, 0]",There are four notes.,There are four squares.,1,True,,exh-clausal,,"[1, 0]",0,"[0, 0, 0]",,"[5, 4, 6]","[8, 1, 5]",0,0,10.2756,,True,"[0, 0, 0]",0,True,0,1,response,undefined,4190,,"[1, 3, 5]",1355,0,There are four clubs.
"[1, 0]",There is a square.,There is a tick.,2,True,,exh-clausal,,"[1, 0]",0,"[0, 0, 0]",,"[2, 4, 1]","[5, 6, 9]",0,1,10.2756,,True,"[0, 0, 0]",1,True,0,1,filler,undefined,4973,,"[6, 5, 7]",1573,0,There is a star.
"[0, 1]",Some of the symbols are triangles.,Some of the symbols are diamonds.,0,True,,exh-clausal,,"[1, 0]",0,"[0, 0, 0]",,"[0, 4, 3]","[9, 2, 1]",1,0,10.2756,,True,"[0, 0, 0]",0,True,1,1,response,undefined,5169,,"[4, 0, 8]",1570,0,Some of the symbols are hearts.
"[1, 0]",There is a square.,There is a diamond.,2,True,,exh-clausal,,"[1, 0]",0,"[0, 0, 0]",,"[0, 2, 1]","[5, 1, 8]",0,0,10.2756,,True,"[0, 0, 0]",1,True,0,1,filler,undefined,5792,,"[9, 1, 5]",1469,0,There is a triangle.
"[1, 0]",Some of the symbols are circles.,5 + 2 = ?,0,False,,exh-clausal,,"[1, 0]",0,"[5, 0, 0]",,"[7, 5, 2]","[7, 1, 5]",0,3,10.2756,,True,"[8, 0, 0]",1,False,1,1,filler,undefined,9327,,"[11, 3, 8]",1808,0,3 + 8 = ?
"[1, 0]",Some of the symbols are circles.,Some of the symbols are triangles.,0,True,,exh-clausal,,"[1, 0]",0,"[0, 0, 0]",,"[9, 2, 4]","[7, 0, 8]",0,0,10.2756,,True,"[0, 0, 0]",0,True,0,1,response,undefined,6175,,"[7, 0, 1]",1629,0,Some of the symbols are circles.
"[1, 0]",Some of the symbols are stars.,4 + 9 = ?,0,False,,exh-clausal,,"[0, 1]",0,"[7, 0, 0]",,"[13, 4, 9]","[6, 0, 9]",0,3,10.2756,,False,"[8, 0, 0]",0,False,1,1,response,undefined,7790,,"[11, 8, 3]",1356,1,8 + 3 = ?
"[1, 0]",There is a triangle.,0 + 1 = ?,2,True,,exh-clausal,,"[0, 1]",1,"[2, 0, 0]",,"[1, 0, 1]","[9, 6, 3]",0,3,10.2756,,True,"[2, 0, 0]",1,True,0,1,filler,undefined,5040,,"[7, 0, 7]",1647,1,0 + 7 = ?
"[0, 1]",There is a circle.,"There is a note, but there is nothing besides a note.",2,True,,exh-clausal,,"[0, 1]",1,"[0, 0, 0]",,"[8, 3, 6]","[7, 4, 8]",1,2,10.2756,,True,"[0, 0, 0]",0,True,1,1,response,undefined,5969,,"[8, 5, 4]",1515,1,"There is a note, but there is nothing besides a note."
"[0, 1]",There are four triangles.,9 + 4 = ?,1,False,,exh-clausal,,"[0, 1]",1,"[9, 0, 0]",,"[13, 9, 4]","[9, 3, 2]",1,3,10.2756,,True,"[1, 0, 0]",0,False,0,1,response,undefined,5703,,"[8, 1, 7]",1655,1,1 + 7 = ?
"[0, 1]",Some of the symbols are hearts.,4 + 6 = ?,0,False,,exh-clausal,,"[1, 0]",1,"[7, 0, 0]",,"[10, 4, 6]","[4, 9, 2]",1,3,10.2756,,False,"[4, 0, 0]",0,False,0,1,response,undefined,6393,,"[14, 6, 8]",1583,0,6 + 8 = ?
"[0, 1]",There are four diamonds.,There are four diamonds.,1,True,,exh-clausal,,"[0, 1]",1,"[0, 0, 0]",,"[0, 5, 6]","[0, 1, 8]",1,0,10.2756,,True,"[0, 0, 0]",1,True,1,1,filler,undefined,5649,,"[9, 1, 3]",1793,1,There are four triangles.
"[0, 1]",There is a star.,6 + 8 = ?,2,True,,exh-clausal,,"[1, 0]",0,"[0, 0, 0]",,"[14, 6, 8]","[6, 1, 9]",1,3,10.2756,,True,"[2, 0, 0]",1,True,1,1,filler,undefined,6336,,"[5, 1, 4]",2192,0,1 + 4 = ?
"[0, 1]",There are four notes.,There are four stars.,1,True,,exh-clausal,,"[1, 0]",0,"[0, 0, 0]",,"[6, 3, 0]","[8, 2, 1]",1,1,10.2756,,True,"[0, 0, 0]",0,True,1,1,response,undefined,4240,,"[3, 2, 7]",1300,0,There are four spades.
"[0, 1]",There is a square.,There is a circle.,2,True,,exh-clausal,,"[0, 1]",1,"[0, 0, 0]",,"[7, 5, 2]","[5, 6, 8]",1,1,10.2756,,True,"[0, 0, 0]",1,True,1,1,filler,undefined,5067,,"[3, 5, 4]",1705,1,There is a spade.
"[1, 0]",There are four ticks.,6 + 7 = ?,1,False,,exh-clausal,,"[0, 1]",0,"[0, 0, 0]",,"[13, 6, 7]","[2, 9, 8]",0,3,10.2756,,False,"[0, 0, 0]",1,False,1,1,filler,undefined,11693,,"[10, 6, 4]",1801,1,6 + 4 = ?
"[0, 1]",Some of the symbols are stars.,Some of the symbols are diamonds.,0,True,,exh-clausal,,"[0, 1]",1,"[0, 0, 0]",,"[0, 4, 5]","[6, 0, 8]",1,0,10.2756,,True,"[0, 0, 0]",0,True,1,1,response,undefined,7622,,"[6, 8, 9]",2300,1,Some of the symbols are stars.
"[1, 0]",There is a circle.,There is a note.,2,True,,exh-clausal,,"[0, 1]",1,"[0, 0, 0]",,"[8, 5, 7]","[7, 0, 9]",0,1,10.2756,,True,"[0, 0, 0]",0,True,0,1,response,undefined,4866,,"[5, 4, 7]",1299,1,There is a square.
"[0, 1]",There is a tick.,5 + 9 = ?,2,False,,exh-clausal,,"[1, 0]",1,"[0, 0, 0]",,"[14, 5, 9]","[2, 8, 9]",1,3,10.2756,,False,"[3, 0, 0]",0,False,0,1,response,undefined,4559,,"[2, 0, 2]",1468,0,0 + 2 = ?
"[0, 1]",There is a club.,There is a square.,2,True,,exh-clausal,,"[0, 1]",1,"[0, 0, 0]",,"[5, 0, 8]","[1, 6, 9]",1,0,10.2756,,True,"[0, 0, 0]",0,True,1,1,response,undefined,5714,,"[6, 0, 4]",1568,1,There is a star.
"[1, 0]",There is a star.,2 + 0 = ?,2,False,,exh-clausal,,"[1, 0]",1,"[3, 0, 0]",,"[2, 2, 0]","[6, 9, 7]",0,3,10.2756,,False,"[4, 0, 0]",0,True,0,1,response,undefined,4194,,"[9, 9, 0]",1372,0,9 + 0 = ?
"[1, 0]",There is a club.,"There is a club, but there is nothing besides a club.",2,True,,exh-clausal,,"[1, 0]",0,"[0, 0, 0]",,"[1, 4, 0]","[1, 2, 9]",0,2,10.2756,,True,"[0, 0, 0]",0,True,0,1,response,undefined,4603,,"[2, 4, 7]",1459,0,"There is a tick, but there is nothing besides a tick."
"[1, 0]",Some of the symbols are clubs.,"Some of the symbols are spades, but not all of them are spades.",0,True,,exh-clausal,,"[1, 0]",0,"[0, 0, 0]",,"[3, 0, 4]","[1, 0, 8]",0,2,10.2756,,True,"[0, 0, 0]",0,True,0,1,response,undefined,8204,,"[3, 4, 0]",1984,0,"Some of the symbols are spades, but not all of them are spades."
"[1, 0]",There is a tick.,There is a club.,2,True,,exh-clausal,,"[0, 1]",1,"[0, 0, 0]",,"[1, 6, 7]","[2, 4, 7]",0,0,10.2756,,True,"[0, 0, 0]",0,True,0,1,response,undefined,5567,,"[4, 1, 3]",1263,1,There is a heart.
"[1, 0]",There is a note.,1 + 0 = ?,2,True,,exh-clausal,,"[0, 1]",1,"[6, 0, 0]",,"[1, 1, 0]","[8, 2, 9]",0,3,10.2756,,True,"[4, 0, 0]",0,True,0,1,response,undefined,4352,,"[7, 7, 0]",1695,1,7 + 0 = ?
"[0, 1]",There are four squares.,There are four stars.,1,True,,exh-clausal,,"[1, 0]",0,"[0, 0, 0]",,"[6, 0, 2]","[5, 7, 6]",1,1,10.2756,,True,"[0, 0, 0]",1,True,1,1,filler,undefined,5603,,"[6, 2, 9]",1585,0,There are four stars.
"[0, 1]",There are four circles.,1 + 1 = ?,1,False,,exh-clausal,,"[1, 0]",1,"[3, 0, 0]",,"[2, 1, 1]","[7, 0, 2]",1,3,10.2756,,False,"[8, 0, 0]",0,False,0,1,response,undefined,4192,,"[8, 3, 5]",1490,0,3 + 5 = ?
"[0, 1]",There are four ticks.,8 + 6 = ?,1,True,,exh-clausal,,"[1, 0]",0,"[1, 0, 0]",,"[14, 8, 6]","[2, 3, 6]",1,3,10.2756,,True,"[7, 0, 0]",1,True,1,1,filler,undefined,4813,,"[8, 4, 4]",1949,0,4 + 4 = ?
"[0, 1]",There is a spade.,"There is a circle, but there is nothing besides a circle.",2,True,,exh-clausal,,"[0, 1]",1,"[0, 0, 0]",,"[7, 9, 3]","[3, 9, 6]",1,2,10.2756,,True,"[0, 0, 0]",1,True,1,1,filler,undefined,6032,,"[3, 1, 2]",1888,1,"There is a spade, but there is nothing besides a spade."
"[1, 0]",There is a diamond.,There is a tick.,2,True,,exh-clausal,,"[0, 1]",1,"[0, 0, 0]",,"[2, 1, 5]","[0, 8, 6]",0,0,10.2756,,True,"[0, 0, 0]",1,True,0,1,filler,undefined,4783,,"[8, 9, 3]",1930,1,There is a note.
"[0, 1]",There is a club.,"There is a diamond, but there is nothing besides a diamond.",2,True,,exh-clausal,,"[1, 0]",0,"[0, 0, 0]",,"[0, 5, 7]","[1, 8, 4]",1,2,10.2756,,True,"[0, 0, 0]",1,True,1,1,filler,undefined,6516,,"[8, 3, 9]",2098,0,"There is a note, but there is nothing besides a note."
"[0, 1]",Some of the symbols are circles.,Some of the symbols are clubs.,0,True,,exh-clausal,,"[1, 0]",0,"[0, 0, 0]",,"[1, 0, 4]","[7, 9, 2]",1,1,10.2756,,True,"[0, 0, 0]",0,True,1,1,response,undefined,5870,,"[4, 1, 7]",1808,0,Some of the symbols are hearts.
"[1, 0]",There are four stars.,"There are four diamonds, but there are no more than four diamonds.",1,True,,exh-clausal,,"[1, 0]",0,"[0, 0, 0]",,"[0, 3, 9]","[6, 2, 9]",0,2,10.2756,,True,"[0, 0, 0]",1,True,0,1,filler,undefined,4560,,"[5, 0, 9]",1336,0,"There are four squares, but there are no more than four squares."
"[0, 1]",There is a square.,"There is a square, but there is nothing besides a square.",2,True,,exh-clausal,,"[1, 0]",0,"[0, 0, 0]",,"[5, 0, 6]","[5, 4, 2]",1,2,10.2756,,True,"[0, 0, 0]",1,True,1,1,filler,undefined,5085,,"[9, 5, 7]",1839,0,"There is a triangle, but there is nothing besides a triangle."
"[0, 1]",There are four squares.,There are four hearts.,1,True,,exh-clausal,,"[1, 0]",0,"[0, 0, 0]",,"[4, 9, 5]","[5, 4, 8]",1,1,10.2756,,True,"[0, 0, 0]",0,True,1,1,response,undefined,5410,,"[2, 9, 7]",2655,0,There are four ticks.
"[1, 0]",Some of the symbols are circles.,Some of the symbols are stars.,0,True,,exh-clausal,,"[1, 0]",0,"[0, 0, 0]",,"[6, 5, 7]","[7, 9, 6]",0,0,10.2756,,True,"[0, 0, 0]",0,True,0,1,response,undefined,4541,,"[3, 7, 9]",1166,0,Some of the symbols are spades.
"[0, 1]",Some of the symbols are ticks.,Some of the symbols are ticks.,0,True,,exh-clausal,,"[0, 1]",1,"[0, 0, 0]",,"[2, 5, 0]","[2, 5, 8]",1,1,10.2756,,True,"[0, 0, 0]",0,True,1,1,response,undefined,7009,,"[1, 4, 0]",1762,1,Some of the symbols are clubs.
"[0, 1]",There are four hearts.,"There are four ticks, but there are no more than four ticks.",1,True,,exh-clausal,,"[1, 0]",0,"[0, 0, 0]",,"[2, 3, 4]","[4, 3, 2]",1,2,10.2756,,True,"[0, 0, 0]",0,True,1,1,response,undefined,5153,,"[9, 7, 1]",1582,0,"There are four triangles, but there are no more than four triangles."
"[0, 1]",There is a club.,There is a diamond.,2,True,,exh-clausal,,"[0, 1]",1,"[0, 0, 0]",,"[0, 2, 6]","[1, 9, 4]",1,1,10.2756,,True,"[0, 0, 0]",0,True,1,1,response,undefined,7020,,"[4, 3, 6]",2491,1,There is a heart.
"[1, 0]",There are four notes.,"There are four squares, but there are no more than four squares.",1,True,,exh-clausal,,"[0, 1]",1,"[0, 0, 0]",,"[5, 8, 1]","[8, 1, 9]",0,2,10.2756,,True,"[0, 0, 0]",0,True,0,1,response,undefined,4916,,"[4, 6, 0]",1502,1,"There are four hearts, but there are no more than four hearts."
"[0, 1]",There are four notes.,There are four diamonds.,1,True,,exh-clausal,,"[0, 1]",1,"[0, 0, 0]",,"[0, 3, 1]","[8, 4, 3]",1,0,10.2756,,True,"[0, 0, 0]",1,True,1,1,filler,undefined,5296,,"[5, 3, 1]",1613,1,There are four squares.
"[1, 0]",There is a spade.,There is a star.,2,True,,exh-clausal,,"[1, 0]",0,"[0, 0, 0]",,"[6, 9, 1]","[3, 0, 4]",0,0,10.2756,,True,"[0, 0, 0]",1,True,0,1,filler,undefined,7522,,"[7, 6, 8]",4338,0,There is a circle.
"[0, 1]",There is a star.,There is a circle.,2,True,,exh-clausal,,"[0, 1]",1,"[0, 0, 0]",,"[7, 8, 3]","[6, 1, 3]",1,0,10.2756,,True,"[0, 0, 0]",1,True,1,1,filler,undefined,4715,,"[7, 4, 9]",1712,1,There is a circle.
"[1, 0]",There are four diamonds.,There are four circles.,1,True,,exh-clausal,,"[0, 1]",1,"[0, 0, 0]",,"[7, 5, 0]","[0, 9, 4]",0,1,10.2756,,True,"[0, 0, 0]",1,True,0,1,filler,undefined,4165,,"[9, 1, 4]",1363,1,There are four triangles.
"[1, 0]",Some of the symbols are circles.,1 + 6 = ?,0,False,,exh-clausal,,"[1, 0]",1,"[8, 0, 0]",,"[7, 1, 6]","[7, 1, 0]",0,3,10.2756,,False,"[8, 0, 0]",0,True,0,1,response,undefined,4782,,"[10, 2, 8]",1379,0,2 + 8 = ?
"[0, 1]",Some of the symbols are triangles.,"Some of the symbols are clubs, but not all of them are clubs.",0,True,,exh-clausal,,"[0, 1]",1,"[0, 0, 0]",,"[1, 9, 5]","[9, 1, 5]",1,2,10.2756,,True,"[0, 0, 0]",0,True,1,1,response,undefined,5900,,"[0, 9, 5]",1309,1,"Some of the symbols are diamonds, but not all of them are diamonds."
"[0, 1]",There are four circles.,There are four squares.,1,True,,exh-clausal,,"[0, 1]",1,"[0, 0, 0]",,"[5, 1, 8]","[7, 4, 5]",1,0,10.2756,,True,"[0, 0, 0]",0,True,1,1,response,undefined,4687,,"[3, 1, 9]",1217,1,There are four spades.
"[0, 1]",Some of the symbols are diamonds.,"Some of the symbols are spades, but not all of them are spades.",0,True,,exh-clausal,,"[0, 1]",1,"[0, 0, 0]",,"[3, 4, 6]","[0, 8, 7]",1,2,10.2756,,True,"[0, 0, 0]",1,True,1,1,filler,undefined,6624,,"[0, 1, 2]",1741,1,"Some of the symbols are diamonds, but not all of them are diamonds."
"[0, 1]",Some of the symbols are ticks.,9 + 9 = ?,0,False,,exh-clausal,,"[0, 1]",1,"[6, 0, 0]",,"[18, 9, 9]","[2, 6, 9]",1,3,10.2756,,True,"[5, 0, 0]",1,False,0,1,filler,undefined,4621,,"[18, 9, 9]",1637,1,9 + 9 = ?
"[1, 0]",There are four circles.,9 + 5 = ?,1,False,,exh-clausal,,"[1, 0]",1,"[4, 0, 0]",,"[14, 9, 5]","[7, 1, 0]",0,3,10.2756,,False,"[2, 0, 0]",1,True,0,1,filler,undefined,4469,,"[14, 6, 8]",1289,0,6 + 8 = ?
"[1, 0]",Some of the symbols are triangles.,Some of the symbols are hearts.,0,True,,exh-clausal,,"[0, 1]",1,"[0, 0, 0]",,"[4, 1, 7]","[9, 8, 1]",0,1,10.2756,,True,"[0, 0, 0]",1,True,0,1,filler,undefined,5947,,"[3, 0, 7]",1213,1,Some of the symbols are spades.
"[0, 1]",There are four clubs.,There are four diamonds.,1,True,,exh-clausal,,"[1, 0]",0,"[0, 0, 0]",,"[0, 8, 1]","[1, 7, 5]",1,0,10.2756,,True,"[0, 0, 0]",1,True,1,1,filler,undefined,3844,,"[2, 6, 1]",1477,0,There are four ticks.
"[1, 0]",Some of the symbols are triangles.,4 + 9 = ?,0,False,,exh-clausal,,"[1, 0]",1,"[9, 0, 0]",,"[13, 4, 9]","[9, 0, 5]",0,3,10.2756,,False,"[2, 0, 0]",0,True,0,1,response,undefined,6978,,"[8, 3, 5]",1302,0,3 + 5 = ?
"[1, 0]",There are four spades.,3 + 0 = ?,1,False,,exh-clausal,,"[1, 0]",1,"[5, 0, 0]",,"[3, 3, 0]","[3, 2, 5]",0,3,10.2756,,False,"[4, 0, 0]",0,True,0,1,response,undefined,3936,,"[8, 0, 8]",1270,0,0 + 8 = ?
"[1, 0]",There is a square.,"There is a club, but there is nothing besides a club.",2,True,,exh-clausal,,"[0, 1]",1,"[0, 0, 0]",,"[1, 5, 4]","[5, 2, 7]",0,2,10.2756,,True,"[0, 0, 0]",1,True,0,1,filler,undefined,5546,,"[0, 2, 4]",1374,1,"There is a diamond, but there is nothing besides a diamond."
"[0, 1]",There is a spade.,1 + 1 = ?,2,False,,exh-clausal,,"[0, 1]",0,"[3, 0, 0]",,"[2, 1, 1]","[3, 6, 0]",1,3,10.2756,,False,"[6, 0, 0]",1,True,1,1,filler,undefined,4559,,"[10, 3, 7]",1968,1,3 + 7 = ?
"[0, 1]",There is a triangle.,There is a triangle.,2,True,,exh-clausal,,"[0, 1]",1,"[0, 0, 0]",,"[9, 2, 7]","[9, 2, 0]",1,1,10.2756,,True,"[0, 0, 0]",0,True,1,1,response,undefined,4517,,"[2, 0, 3]",1255,1,There is a tick.
"[0, 1]",There are four triangles.,There are four stars.,1,True,,exh-clausal,,"[1, 0]",0,"[0, 0, 0]",,"[6, 0, 4]","[9, 4, 5]",1,1,10.2756,,True,"[0, 0, 0]",1,True,1,1,filler,undefined,4459,,"[5, 8, 1]",2067,0,There are four squares.
"[0, 1]",There are four diamonds.,"There are four diamonds, but there are no more than four diamonds.",1,True,,exh-clausal,,"[1, 0]",0,"[0, 0, 0]",,"[0, 1, 9]","[0, 1, 5]",1,2,10.2756,,True,"[0, 0, 0]",1,True,1,1,filler,undefined,4464,,"[7, 4, 8]",1411,0,"There are four circles, but there are no more than four circles."
"[1, 0]",Some of the symbols are hearts.,"Some of the symbols are diamonds, but not all of them are diamonds.",0,True,,exh-clausal,,"[0, 1]",1,"[0, 0, 0]",,"[0, 8, 5]","[4, 9, 0]",0,2,10.2756,,True,"[0, 0, 0]",1,True,0,1,filler,undefined,5218,,"[9, 2, 3]",1472,1,"Some of the symbols are triangles, but not all of them are triangles."
"[0, 1]",Some of the symbols are circles.,Some of the symbols are circles.,0,True,,exh-clausal,,"[0, 1]",1,"[0, 0, 0]",,"[7, 0, 3]","[7, 1, 5]",1,1,10.2756,,True,"[0, 0, 0]",1,True,1,1,filler,undefined,6046,,"[8, 3, 6]",1712,1,Some of the symbols are notes.
"[1, 0]",Some of the symbols are circles.,Some of the symbols are hearts.,0,True,,exh-clausal,,"[1, 0]",0,"[0, 0, 0]",,"[4, 6, 0]","[7, 3, 0]",0,1,10.2756,,True,"[0, 0, 0]",1,True,0,1,filler,undefined,5201,,"[2, 6, 1]",1970,0,Some of the symbols are ticks.
"[1, 0]",There is a club.,"There is a square, but there is nothing besides a square.",2,True,,exh-clausal,,"[0, 1]",1,"[0, 0, 0]",,"[5, 1, 4]","[1, 2, 8]",0,2,10.2756,,True,"[0, 0, 0]",0,True,0,1,response,undefined,4492,,"[5, 2, 3]",1741,1,"There is a square, but there is nothing besides a square."
"[0, 1]",There is a note.,0 + 3 = ?,2,True,,exh-clausal,,"[1, 0]",0,"[6, 0, 0]",,"[3, 0, 3]","[8, 9, 7]",1,3,10.2756,,True,"[6, 0, 0]",0,True,1,1,response,undefined,5258,,"[8, 7, 1]",2331,0,7 + 1 = ?
"[1, 0]",There is a note.,9 + 6 = ?,2,False,,exh-clausal,,"[1, 0]",0,"[2, 0, 0]",,"[15, 9, 6]","[8, 4, 3]",0,3,10.2756,,True,"[6, 0, 0]",1,False,1,1,filler,undefined,5444,,"[5, 2, 3]",2218,0,2 + 3 = ?
"[0, 1]",Some of the symbols are squares.,Some of the symbols are spades.,0,True,,exh-clausal,,"[1, 0]",0,"[0, 0, 0]",,"[3, 2, 9]","[5, 8, 3]",1,1,10.2756,,True,"[0, 0, 0]",0,True,1,1,response,undefined,5893,,"[3, 4, 8]",1777,0,Some of the symbols are spades.
"[1, 0]",There is a tick.,There is a heart.,2,True,,exh-clausal,,"[0, 1]",1,"[0, 0, 0]",,"[4, 1, 0]","[2, 8, 0]",0,0,10.2756,,True,"[0, 0, 0]",0,True,0,1,response,undefined,4466,,"[7, 1, 9]",1344,1,There is a circle.
"[0, 1]",Some of the symbols are ticks.,4 + 1 = ?,0,False,,exh-clausal,,"[0, 1]",1,"[8, 0, 0]",,"[5, 4, 1]","[2, 6, 3]",1,3,10.2756,,True,"[7, 0, 0]",1,False,0,1,filler,undefined,4922,,"[11, 7, 4]",1568,1,7 + 4 = ?
"[1, 0]",There is a circle.,There is a star.,2,True,,exh-clausal,,"[1, 0]",0,"[0, 0, 0]",,"[6, 3, 7]","[7, 3, 9]",0,0,10.2756,,True,"[0, 0, 0]",0,True,0,1,response,undefined,4896,,"[5, 3, 2]",1261,0,There is a square.
"[1, 0]",There are four ticks.,0 + 8 = ?,1,True,,exh-clausal,,"[0, 1]",1,"[0, 0, 0]",,"[8, 0, 8]","[2, 8, 9]",0,3,10.2756,,True,"[3, 0, 0]",1,True,0,1,filler,undefined,4695,,"[7, 1, 6]",2119,1,1 + 6 = ?
"[1, 0]",There are four stars.,6 + 9 = ?,1,False,,exh-clausal,,"[0, 1]",0,"[5, 0, 0]",,"[15, 6, 9]","[6, 1, 2]",0,3,10.2756,,False,"[1, 0, 0]",0,False,1,1,response,undefined,3854,,"[6, 0, 6]",1357,1,0 + 6 = ?
"[1, 0]",Some of the symbols are clubs.,Some of the symbols are circles.,0,True,,exh-clausal,,"[0, 1]",1,"[0, 0, 0]",,"[7, 8, 4]","[1, 7, 6]",0,1,10.2756,,True,"[0, 0, 0]",1,True,0,1,filler,undefined,6729,,"[1, 6, 7]",1678,1,Some of the symbols are clubs.
"[0, 1]",There are four stars.,"There are four triangles, but there are no more than four triangles.",1,True,,exh-clausal,,"[0, 1]",1,"[0, 0, 0]",,"[9, 5, 1]","[6, 2, 3]",1,2,10.2756,,True,"[0, 0, 0]",1,True,1,1,filler,undefined,6452,,"[1, 2, 8]",1453,1,"There are four clubs, but there are no more than four clubs."
"[0, 1]",Some of the symbols are diamonds.,1 + 3 = ?,0,True,,exh-clausal,,"[1, 0]",0,"[7, 0, 0]",,"[4, 1, 3]","[0, 6, 4]",1,3,10.2756,,True,"[6, 0, 0]",1,True,1,1,filler,undefined,6330,,"[3, 1, 2]",2478,0,1 + 2 = ?
"[0, 1]",There are four clubs.,There are four spades.,1,True,,exh-clausal,,"[1, 0]",0,"[0, 0, 0]",,"[3, 1, 0]","[1, 9, 5]",1,1,10.2756,,True,"[0, 0, 0]",1,True,1,1,filler,undefined,4576,,"[2, 7, 3]",1302,0,There are four ticks.
"[1, 0]",There are four ticks.,There are four clubs.,1,True,,exh-clausal,,"[0, 1]",1,"[0, 0, 0]",,"[1, 9, 3]","[2, 9, 4]",0,0,10.2756,,True,"[0, 0, 0]",0,True,0,1,response,undefined,3543,,"[5, 9, 2]",1220,1,There are four squares.
"[1, 0]",There are four circles.,"There are four diamonds, but there are no more than four diamonds.",1,True,,exh-clausal,,"[1, 0]",0,"[0, 0, 0]",,"[0, 3, 7]","[7, 8, 9]",0,2,10.2756,,True,"[0, 0, 0]",1,True,0,1,filler,undefined,3994,,"[2, 4, 1]",1371,0,"There are four ticks, but there are no more than four ticks."
"[1, 0]",Some of the symbols are ticks.,"Some of the symbols are triangles, but not all of them are triangles.",0,True,,exh-clausal,,"[0, 1]",1,"[0, 0, 0]",,"[9, 7, 0]","[2, 3, 0]",0,2,10.2756,,True,"[0, 0, 0]",1,True,0,1,filler,undefined,4724,,"[8, 3, 9]",1537,1,"Some of the symbols are notes, but not all of them are notes."
"[0, 1]",There are four ticks.,"There are four squares, but there are no more than four squares.",1,True,,exh-clausal,,"[0, 1]",1,"[0, 0, 0]",,"[5, 6, 4]","[2, 3, 4]",1,2,10.2756,,True,"[0, 0, 0]",0,True,1,1,response,undefined,4469,,"[4, 2, 6]",1607,1,"There are four hearts, but there are no more than four hearts."
,,,,,,,bot_check,,,,"[0, 'susan']",,,,,13.272816666666667,1,,,,,,2,,undefined,,Susan,,,,
"[1, 0]",Some of the symbols are clubs.,8 + 4 = ?,0,False,,exh-clausal,,"[0, 1]",0,"[8, 0, 0]",,"[12, 8, 4]","[1, 9, 8]",0,3,13.272816666666667,,False,"[7, 0, 0]",0,False,1,2,response,undefined,8157,,"[10, 8, 2]",3021,1,8 + 2 = ?
"[0, 1]",There are four squares.,There are four circles.,1,True,,exh-clausal,,"[0, 1]",1,"[0, 0, 0]",,"[7, 9, 8]","[5, 2, 1]",1,0,13.272816666666667,,True,"[0, 0, 0]",0,True,1,2,response,undefined,7571,,"[4, 2, 8]",2039,1,There are four hearts.
"[1, 0]",Some of the symbols are circles.,6 + 4 = ?,0,False,,exh-clausal,,"[1, 0]",0,"[5, 0, 0]",,"[10, 6, 4]","[7, 3, 5]",0,3,13.272816666666667,,True,"[6, 0, 0]",0,False,1,2,response,undefined,14612,,"[8, 8, 0]",2441,0,8 + 0 = ?
"[0, 1]",Some of the symbols are triangles.,Some of the symbols are diamonds.,0,False,,exh-clausal,,"[0, 1]",1,"[0, 0, 0]",,"[0, 7, 8]","[9, 5, 0]",1,0,13.272816666666667,,True,"[0, 0, 0]",1,False,0,2,response,undefined,6536,,"[8, 5, 6]",2248,1,Some of the symbols are notes.
"[0, 1]",There are four clubs.,There are four hearts.,1,True,,exh-clausal,,"[0, 1]",1,"[0, 0, 0]",,"[4, 8, 6]","[1, 2, 5]",1,0,13.272816666666667,,True,"[0, 0, 0]",1,True,1,2,filler,undefined,7840,,"[6, 5, 1]",3154,1,There are four stars.
"[1, 0]",There are four triangles.,"There are four clubs, but there are no more than four clubs.",1,False,,exh-clausal,,"[1, 0]",1,"[0, 0, 0]",,"[1, 3, 7]","[9, 8, 2]",0,2,13.272816666666667,,False,"[0, 0, 0]",0,False,1,2,filler,undefined,5020,,"[0, 6, 9]",1747,0,"There are four diamonds, but there are no more than four diamonds."
"[1, 0]",There is a triangle.,"There is a triangle, but there is nothing besides a triangle.",2,False,,exh-clausal,,"[1, 0]",1,"[0, 0, 0]",,"[9, 3, 7]","[9, 1, 8]",0,2,13.272816666666667,,False,"[0, 0, 0]",0,False,1,2,response,undefined,6092,,"[6, 2, 8]",1816,0,"There is a star, but there is nothing besides a star."
"[0, 1]",There are four hearts.,There are four triangles.,1,False,,exh-clausal,,"[0, 1]",0,"[0, 0, 0]",,"[9, 7, 8]","[4, 6, 5]",1,1,13.272816666666667,,False,"[0, 0, 0]",1,False,0,2,filler,undefined,9592,,"[9, 0, 3]",2759,1,There are four triangles.
"[0, 1]",There are four ticks.,7 + 1 = ?,1,False,,exh-clausal,,"[1, 0]",1,"[5, 0, 0]",,"[8, 7, 1]","[2, 7, 5]",1,3,13.272816666666667,,False,"[3, 0, 0]",0,False,0,2,filler,undefined,4776,,"[16, 9, 7]",1646,0,9 + 7 = ?
"[1, 0]",Some of the symbols are squares.,"Some of the symbols are hearts, but not all of them are hearts.",0,False,,exh-clausal,,"[0, 1]",0,"[0, 0, 0]",,"[4, 0, 5]","[5, 9, 0]",0,2,13.272816666666667,,False,"[0, 0, 0]",0,False,1,2,filler,undefined,9193,,"[1, 2, 0]",1945,1,"Some of the symbols are clubs, but not all of them are clubs."
"[0, 1]",There is a circle.,"There is a diamond, but there is nothing besides a diamond.",2,True,,exh-clausal,,"[0, 1]",1,"[0, 0, 0]",,"[0, 4, 3]","[7, 4, 8]",1,2,13.272816666666667,,True,"[0, 0, 0]",0,True,1,2,response,undefined,6178,,"[1, 6, 8]",1467,1,"There is a club, but there is nothing besides a club."
"[1, 0]",There are four spades.,There are four ticks.,1,True,,exh-clausal,,"[0, 1]",1,"[0, 0, 0]",,"[2, 6, 7]","[3, 0, 4]",0,0,13.272816666666667,,True,"[0, 0, 0]",0,True,0,2,response,undefined,9672,,"[6, 4, 0]",2032,1,There are four stars.
"[1, 0]",Some of the symbols are ticks.,8 + 2 = ?,0,False,,exh-clausal,,"[0, 1]",0,"[2, 0, 0]",,"[10, 8, 2]","[2, 4, 9]",0,3,13.272816666666667,,False,"[1, 0, 0]",0,True,0,2,filler,undefined,5908,,"[7, 5, 2]",1670,1,5 + 2 = ?
"[0, 1]",Some of the symbols are notes.,Some of the symbols are hearts.,0,False,,exh-clausal,,"[0, 1]",1,"[0, 0, 0]",,"[4, 5, 0]","[8, 4, 0]",1,0,13.272816666666667,,True,"[0, 0, 0]",1,False,0,2,response,undefined,12944,,"[9, 5, 6]",6446,1,Some of the symbols are triangles.
"[1, 0]",Some of the symbols are spades.,"Some of the symbols are squares, but not all of them are squares.",0,False,,exh-clausal,,"[1, 0]",1,"[0, 0, 0]",,"[5, 9, 7]","[3, 8, 4]",0,2,13.272816666666667,,False,"[0, 0, 0]",1,False,1,2,filler,undefined,10631,,"[2, 8, 1]",5127,0,"Some of the symbols are ticks, but not all of them are ticks."
"[0, 1]",Some of the symbols are stars.,"Some of the symbols are stars, but not all of them are stars.",0,False,,exh-clausal,,"[1, 0]",1,"[0, 0, 0]",,"[6, 4, 8]","[6, 4, 9]",1,2,13.272816666666667,,False,"[0, 0, 0]",0,False,0,2,response,undefined,6960,,"[8, 5, 4]",1870,0,"Some of the symbols are notes, but not all of them are notes."
"[0, 1]",Some of the symbols are triangles.,Some of the symbols are squares.,0,False,,exh-clausal,,"[0, 1]",0,"[0, 0, 0]",,"[5, 4, 9]","[9, 3, 8]",1,0,13.272816666666667,,False,"[0, 0, 0]",0,False,0,2,filler,undefined,6289,,"[1, 5, 9]",2096,1,Some of the symbols are clubs.
"[1, 0]",There are four diamonds.,7 + 8 = ?,1,False,,exh-clausal,,"[0, 1]",1,"[5, 0, 0]",,"[15, 7, 8]","[0, 9, 5]",0,3,13.272816666666667,,True,"[4, 0, 0]",0,False,1,2,response,undefined,6919,,"[6, 5, 1]",2188,1,5 + 1 = ?
"[1, 0]",There is a star.,4 + 9 = ?,2,True,,exh-clausal,,"[0, 1]",1,"[4, 0, 0]",,"[13, 4, 9]","[6, 0, 1]",0,3,13.272816666666667,,True,"[7, 0, 0]",0,True,0,2,response,undefined,19521,,"[14, 9, 5]",7795,1,9 + 5 = ?
"[0, 1]",There is a tick.,"There is a triangle, but there is nothing besides a triangle.",2,False,,exh-clausal,,"[0, 1]",0,"[0, 0, 0]",,"[9, 7, 8]","[2, 0, 9]",1,2,13.272816666666667,,False,"[0, 0, 0]",0,True,1,2,filler,undefined,10363,,"[4, 6, 8]",1644,1,"There is a heart, but there is nothing besides a heart."
"[0, 1]",There is a club.,"There is a spade, but there is nothing besides a spade.",2,False,,exh-clausal,,"[0, 1]",0,"[0, 0, 0]",,"[3, 5, 0]","[1, 4, 0]",1,2,13.272816666666667,,False,"[0, 0, 0]",0,True,1,2,response,undefined,4668,,"[0, 8, 4]",1872,1,"There is a diamond, but there is nothing besides a diamond."
"[0, 1]",There is a square.,There is a note.,2,False,,exh-clausal,,"[0, 1]",0,"[0, 0, 0]",,"[8, 7, 6]","[5, 1, 4]",1,0,13.272816666666667,,False,"[0, 0, 0]",0,True,1,2,response,undefined,17464,,"[7, 0, 9]",3325,1,There is a circle.
"[0, 1]",Some of the symbols are ticks.,8 + 9 = ?,0,False,,exh-clausal,,"[0, 1]",0,"[7, 0, 0]",,"[17, 8, 9]","[2, 1, 4]",1,3,13.272816666666667,,False,"[3, 0, 0]",0,True,1,2,filler,undefined,11090,,"[8, 2, 6]",1715,1,2 + 6 = ?
"[0, 1]",There are four circles.,9 + 5 = ?,1,True,,exh-clausal,,"[1, 0]",0,"[7, 0, 0]",,"[14, 9, 5]","[7, 0, 4]",1,3,13.272816666666667,,True,"[2, 0, 0]",0,True,1,2,filler,undefined,9344,,"[13, 7, 6]",2089,0,7 + 6 = ?
"[1, 0]",There are four spades.,9 + 3 = ?,1,False,,exh-clausal,,"[1, 0]",0,"[2, 0, 0]",,"[12, 9, 3]","[3, 7, 2]",0,3,13.272816666666667,,True,"[2, 0, 0]",0,False,1,2,response,undefined,10268,,"[8, 2, 6]",1766,0,2 + 6 = ?
"[1, 0]",There are four squares.,"There are four squares, but there are no more than four squares.",1,False,,exh-clausal,,"[1, 0]",1,"[0, 0, 0]",,"[5, 8, 7]","[5, 2, 6]",0,2,13.272816666666667,,False,"[0, 0, 0]",0,False,1,2,response,undefined,8201,,"[4, 5, 0]",2335,0,"There are four hearts, but there are no more than four hearts."
"[1, 0]",There are four ticks.,There are four circles.,1,True,,exh-clausal,,"[0, 1]",1,"[0, 0, 0]",,"[7, 0, 4]","[2, 4, 8]",0,0,13.272816666666667,,True,"[0, 0, 0]",0,True,0,2,filler,undefined,8687,,"[3, 5, 4]",1959,1,There are four spades.
"[0, 1]",There are four triangles.,"There are four notes, but there are no more than four notes.",1,False,,exh-clausal,,"[0, 1]",0,"[0, 0, 0]",,"[8, 3, 6]","[9, 1, 5]",1,2,13.272816666666667,,False,"[0, 0, 0]",0,False,0,2,response,undefined,9871,,"[3, 2, 6]",3566,1,"There are four spades, but there are no more than four spades."
"[1, 0]",There are four squares.,There are four circles.,1,True,,exh-clausal,,"[1, 0]",0,"[0, 0, 0]",,"[7, 8, 5]","[5, 0, 3]",0,1,13.272816666666667,,True,"[0, 0, 0]",1,True,0,2,response,undefined,7507,,"[8, 9, 4]",2360,0,There are four notes.
"[1, 0]",There are four diamonds.,There are four stars.,1,True,,exh-clausal,,"[0, 1]",1,"[0, 0, 0]",,"[6, 7, 1]","[0, 7, 4]",0,1,13.272816666666667,,True,"[0, 0, 0]",0,True,0,2,filler,undefined,7173,,"[0, 2, 9]",3166,1,There are four diamonds.
"[0, 1]",There is a star.,6 + 1 = ?,2,True,,exh-clausal,,"[1, 0]",0,"[0, 0, 0]",,"[7, 6, 1]","[6, 1, 4]",1,3,13.272816666666667,,True,"[4, 0, 0]",1,True,1,2,response,undefined,11209,,"[4, 0, 4]",5463,0,0 + 4 = ?
"[0, 1]",Some of the symbols are triangles.,Some of the symbols are diamonds.,0,False,,exh-clausal,,"[1, 0]",1,"[0, 0, 0]",,"[0, 8, 4]","[9, 2, 4]",1,1,13.272816666666667,,False,"[0, 0, 0]",0,False,0,2,filler,undefined,11159,,"[7, 0, 3]",4224,0,Some of the symbols are circles.
"[0, 1]",Some of the symbols are diamonds.,"Some of the symbols are squares, but not all of them are squares.",0,False,,exh-clausal,,"[0, 1]",0,"[0, 0, 0]",,"[5, 9, 6]","[0, 1, 3]",1,2,13.272816666666667,,False,"[0, 0, 0]",0,False,0,2,response,undefined,13537,,"[2, 6, 1]",1968,1,"Some of the symbols are ticks, but not all of them are ticks."
"[0, 1]",Some of the symbols are squares.,Some of the symbols are spades.,0,False,,exh-clausal,,"[1, 0]",1,"[0, 0, 0]",,"[3, 2, 7]","[5, 3, 6]",1,0,13.272816666666667,,False,"[0, 0, 0]",0,False,0,2,response,undefined,19085,,"[5, 3, 8]",2295,0,Some of the symbols are squares.
"[0, 1]",There is a heart.,7 + 9 = ?,2,False,,exh-clausal,,"[0, 1]",1,"[2, 0, 0]",,"[16, 7, 9]","[4, 7, 6]",1,3,13.272816666666667,,True,"[0, 0, 0]",1,False,0,2,filler,undefined,19435,,"[5, 4, 1]",3769,1,4 + 1 = ?
"[0, 1]",Some of the symbols are diamonds.,"Some of the symbols are diamonds, but not all of them are diamonds.",0,False,,exh-clausal,,"[1, 0]",1,"[0, 0, 0]",,"[0, 4, 9]","[0, 1, 3]",1,2,13.272816666666667,,False,"[0, 0, 0]",0,False,0,2,response,undefined,10609,,"[0, 8, 3]",2139,0,"Some of the symbols are diamonds, but not all of them are diamonds."
"[1, 0]",There is a tick.,"There is a triangle, but there is nothing besides a triangle.",2,True,,exh-clausal,,"[1, 0]",0,"[0, 0, 0]",,"[9, 0, 8]","[2, 8, 7]",0,2,13.272816666666667,,True,"[0, 0, 0]",1,True,0,2,filler,undefined,12925,,"[8, 4, 1]",2800,0,"There is a note, but there is nothing besides a note."
"[0, 1]",There are four notes.,There are four hearts.,1,True,,exh-clausal,,"[1, 0]",0,"[0, 0, 0]",,"[4, 9, 6]","[8, 4, 5]",1,1,13.272816666666667,,True,"[0, 0, 0]",0,True,1,2,filler,undefined,10433,,"[9, 2, 6]",4968,0,There are four triangles.
"[1, 0]",There are four ticks.,There are four diamonds.,1,True,,exh-clausal,,"[1, 0]",0,"[0, 0, 0]",,"[0, 7, 8]","[2, 9, 6]",0,1,13.272816666666667,,True,"[0, 0, 0]",1,True,0,2,response,undefined,12189,,"[0, 9, 4]",4645,0,There are four diamonds.
"[1, 0]",There is a note.,There is a note.,2,False,,exh-clausal,,"[0, 1]",0,"[0, 0, 0]",,"[8, 9, 3]","[8, 5, 9]",0,0,13.272816666666667,,False,"[0, 0, 0]",1,True,0,2,filler,undefined,6320,,"[4, 1, 7]",1774,1,There is a heart.
"[1, 0]",Some of the symbols are spades.,Some of the symbols are diamonds.,0,False,,exh-clausal,,"[0, 1]",0,"[0, 0, 0]",,"[0, 6, 1]","[3, 8, 5]",0,1,13.272816666666667,,False,"[0, 0, 0]",0,False,1,2,filler,undefined,8866,,"[4, 5, 8]",1826,1,Some of the symbols are hearts.
"[1, 0]",There are four notes.,"There are four circles, but there are no more than four circles.",1,False,,exh-clausal,,"[1, 0]",1,"[0, 0, 0]",,"[7, 6, 8]","[8, 3, 1]",0,2,13.272816666666667,,False,"[0, 0, 0]",1,False,1,2,filler,undefined,7719,,"[9, 0, 7]",2716,0,"There are four triangles, but there are no more than four triangles."
"[0, 1]",There are four spades.,"There are four spades, but there are no more than four spades.",1,False,,exh-clausal,,"[0, 1]",0,"[0, 0, 0]",,"[3, 0, 8]","[3, 1, 7]",1,2,13.272816666666667,,False,"[0, 0, 0]",1,False,0,2,filler,undefined,6642,,"[6, 3, 8]",1983,1,"There are four stars, but there are no more than four stars."
"[1, 0]",Some of the symbols are squares.,4 + 5 = ?,0,False,,exh-clausal,,"[1, 0]",1,"[8, 0, 0]",,"[9, 4, 5]","[5, 7, 2]",0,3,13.272816666666667,,False,"[0, 0, 0]",1,True,0,2,response,undefined,14808,,"[12, 7, 5]",4753,0,7 + 5 = ?
"[1, 0]",Some of the symbols are circles.,Some of the symbols are notes.,0,False,,exh-clausal,,"[0, 1]",0,"[0, 0, 0]",,"[8, 7, 6]","[7, 5, 2]",0,0,13.272816666666667,,False,"[0, 0, 0]",0,False,1,2,filler,undefined,10058,,"[8, 0, 9]",2861,1,Some of the symbols are notes.
"[0, 1]",There is a note.,There is a tick.,2,True,,exh-clausal,,"[1, 0]",0,"[0, 0, 0]",,"[2, 7, 3]","[8, 1, 9]",1,0,13.272816666666667,,True,"[0, 0, 0]",1,True,1,2,filler,undefined,2821,,"[4, 6, 1]",693,0,There is a heart.
"[1, 0]",There are four squares.,"There are four spades, but there are no more than four spades.",1,False,,exh-clausal,,"[0, 1]",0,"[0, 0, 0]",,"[3, 9, 5]","[5, 9, 0]",0,2,13.272816666666667,,False,"[0, 0, 0]",0,True,0,2,filler,undefined,1082,,"[9, 2, 7]",336,1,"There are four triangles, but there are no more than four triangles."
"[0, 1]",There are four squares.,"There are four ticks, but there are no more than four ticks.",1,False,,exh-clausal,,"[0, 1]",0,"[0, 0, 0]",,"[2, 6, 7]","[5, 0, 8]",1,2,13.272816666666667,,False,"[0, 0, 0]",0,False,0,2,response,undefined,863,,"[4, 5, 7]",259,1,"There are four hearts, but there are no more than four hearts."
"[1, 0]",There is a club.,There is a heart.,2,False,,exh-clausal,,"[0, 1]",0,"[0, 0, 0]",,"[4, 5, 8]","[1, 7, 9]",0,1,13.272816666666667,,False,"[0, 0, 0]",0,True,0,2,filler,undefined,881,,"[0, 3, 7]",288,1,There is a diamond.
"[0, 1]",There are four squares.,There are four diamonds.,1,False,,exh-clausal,,"[0, 1]",0,"[0, 0, 0]",,"[0, 6, 1]","[5, 4, 9]",1,0,13.272816666666667,,False,"[0, 0, 0]",0,False,0,2,filler,undefined,899,,"[6, 5, 8]",289,1,There are four stars.
"[0, 1]",Some of the symbols are hearts.,Some of the symbols are circles.,0,False,,exh-clausal,,"[0, 1]",0,"[0, 0, 0]",,"[7, 5, 4]","[4, 7, 6]",1,1,13.272816666666667,,False,"[0, 0, 0]",0,False,0,2,response,undefined,923,,"[8, 6, 4]",302,1,Some of the symbols are notes.
"[1, 0]",Some of the symbols are clubs.,Some of the symbols are notes.,0,False,,exh-clausal,,"[0, 1]",0,"[0, 0, 0]",,"[8, 2, 0]","[1, 9, 5]",0,1,13.272816666666667,,False,"[0, 0, 0]",0,True,0,2,filler,undefined,928,,"[3, 5, 9]",332,1,Some of the symbols are spades.
"[0, 1]",There is a diamond.,7 + 8 = ?,2,False,,exh-clausal,,"[0, 1]",0,"[1, 0, 0]",,"[15, 7, 8]","[0, 3, 2]",1,3,13.272816666666667,,False,"[8, 0, 0]",0,False,0,2,filler,undefined,914,,"[14, 7, 7]",352,1,7 + 7 = ?
"[0, 1]",There are four circles.,There are four hearts.,1,True,,exh-clausal,,"[1, 0]",0,"[0, 0, 0]",,"[4, 7, 3]","[7, 0, 8]",1,0,13.272816666666667,,True,"[0, 0, 0]",0,True,1,2,filler,undefined,3004,,"[8, 9, 2]",331,0,There are four notes.
"[0, 1]",There are four squares.,0 + 1 = ?,1,False,,exh-clausal,,"[0, 1]",1,"[7, 0, 0]",,"[1, 0, 1]","[5, 7, 6]",1,3,13.272816666666667,,True,"[2, 0, 0]",1,False,0,2,response,undefined,7184,,"[14, 7, 7]",2170,1,7 + 7 = ?
"[0, 1]",There is a heart.,There is a heart.,2,True,,exh-clausal,,"[1, 0]",0,"[0, 0, 0]",,"[4, 5, 2]","[4, 6, 9]",1,1,13.272816666666667,,True,"[0, 0, 0]",1,True,1,2,response,undefined,4991,,"[4, 9, 5]",1213,0,There is a heart.
"[0, 1]",Some of the symbols are stars.,"Some of the symbols are squares, but not all of them are squares.",0,False,,exh-clausal,,"[0, 1]",0,"[0, 0, 0]",,"[5, 1, 2]","[6, 4, 5]",1,2,13.272816666666667,,False,"[0, 0, 0]",0,False,0,2,filler,undefined,6511,,"[1, 5, 4]",2057,1,"Some of the symbols are clubs, but not all of them are clubs."
"[1, 0]",Some of the symbols are stars.,Some of the symbols are triangles.,0,True,,exh-clausal,,"[1, 0]",0,"[0, 0, 0]",,"[9, 4, 7]","[6, 4, 3]",0,0,13.272816666666667,,True,"[0, 0, 0]",0,True,0,2,response,undefined,8415,,"[1, 9, 6]",1848,0,Some of the symbols are clubs.
"[1, 0]",There is a triangle.,There is a diamond.,2,True,,exh-clausal,,"[0, 1]",1,"[0, 0, 0]",,"[0, 4, 5]","[9, 2, 8]",0,1,13.272816666666667,,True,"[0, 0, 0]",0,True,0,2,response,undefined,5704,,"[9, 3, 6]",1684,1,There is a triangle.
"[1, 0]",Some of the symbols are squares.,Some of the symbols are squares.,0,False,,exh-clausal,,"[0, 1]",0,"[0, 0, 0]",,"[5, 1, 3]","[5, 0, 3]",0,1,13.272816666666667,,False,"[0, 0, 0]",0,False,1,2,response,undefined,3831,,"[0, 6, 9]",1198,1,Some of the symbols are diamonds.
"[1, 0]",Some of the symbols are notes.,Some of the symbols are stars.,0,False,,exh-clausal,,"[1, 0]",1,"[0, 0, 0]",,"[6, 2, 4]","[8, 9, 2]",0,0,13.272816666666667,,False,"[0, 0, 0]",1,False,1,2,filler,undefined,1683,,"[9, 5, 3]",273,0,Some of the symbols are triangles.
"[1, 0]",There are four triangles.,There are four diamonds.,1,True,,exh-clausal,,"[0, 1]",1,"[0, 0, 0]",,"[0, 4, 9]","[9, 2, 1]",0,1,13.272816666666667,,True,"[0, 0, 0]",1,True,0,2,response,undefined,910,,"[8, 0, 3]",318,1,There are four notes.
"[1, 0]",Some of the symbols are circles.,Some of the symbols are circles.,0,False,,exh-clausal,,"[0, 1]",1,"[0, 0, 0]",,"[7, 4, 0]","[7, 1, 8]",0,1,13.272816666666667,,True,"[0, 0, 0]",1,False,1,2,response,undefined,885,,"[6, 7, 9]",277,1,Some of the symbols are stars.
"[0, 1]",There are four clubs.,3 + 1 = ?,1,True,,exh-clausal,,"[1, 0]",0,"[0, 0, 0]",,"[4, 3, 1]","[1, 2, 8]",1,3,13.272816666666667,,True,"[0, 0, 0]",0,True,1,2,response,undefined,1947,,"[14, 6, 8]",1325,0,6 + 8 = ?
"[1, 0]",There is a circle.,There is a heart.,2,True,,exh-clausal,,"[1, 0]",0,"[0, 0, 0]",,"[4, 8, 1]","[7, 3, 1]",0,1,13.272816666666667,,True,"[0, 0, 0]",0,True,0,2,response,undefined,1599,,"[4, 9, 8]",473,0,There is a heart.
"[0, 1]",There are four ticks.,There are four triangles.,1,False,,exh-clausal,,"[0, 1]",0,"[0, 0, 0]",,"[9, 8, 2]","[2, 7, 3]",1,0,13.272816666666667,,False,"[0, 0, 0]",0,False,0,2,response,undefined,1214,,"[4, 0, 2]",397,1,There are four hearts.
"[0, 1]",There is a spade.,0 + 9 = ?,2,True,,exh-clausal,,"[1, 0]",0,"[3, 0, 0]",,"[9, 0, 9]","[3, 2, 4]",1,3,13.272816666666667,,True,"[7, 0, 0]",0,True,1,2,response,undefined,8838,,"[14, 9, 5]",1203,0,9 + 5 = ?
"[0, 1]",There is a circle.,There is a triangle.,2,False,,exh-clausal,,"[0, 1]",0,"[0, 0, 0]",,"[9, 7, 8]","[7, 2, 4]",1,0,13.272816666666667,,False,"[0, 0, 0]",0,False,0,2,filler,undefined,1210,,"[2, 7, 5]",413,1,There is a tick.
"[0, 1]",Some of the symbols are spades.,Some of the symbols are hearts.,0,False,,exh-clausal,,"[1, 0]",0,"[0, 0, 0]",,"[4, 3, 7]","[3, 5, 4]",1,1,13.272816666666667,,True,"[0, 0, 0]",1,False,0,2,filler,undefined,1839,,"[5, 2, 4]",782,0,Some of the symbols are squares.
"[1, 0]",Some of the symbols are diamonds.,1 + 0 = ?,0,False,,exh-clausal,,"[1, 0]",1,"[0, 0, 0]",,"[1, 1, 0]","[0, 4, 9]",0,3,13.272816666666667,,False,"[6, 0, 0]",0,True,0,2,response,undefined,6255,,"[8, 6, 2]",2236,0,6 + 2 = ?
"[1, 0]",Some of the symbols are spades.,Some of the symbols are circles.,0,False,,exh-clausal,,"[0, 1]",1,"[0, 0, 0]",,"[7, 6, 1]","[3, 1, 4]",0,1,13.272816666666667,,True,"[0, 0, 0]",0,False,1,2,response,undefined,1809,,"[2, 9, 8]",383,1,Some of the symbols are ticks.
"[0, 1]",There are four squares.,There are four ticks.,1,False,,exh-clausal,,"[1, 0]",0,"[0, 0, 0]",,"[2, 9, 6]","[5, 2, 0]",1,1,13.272816666666667,,True,"[0, 0, 0]",0,False,0,2,response,undefined,957,,"[3, 5, 0]",317,0,There are four spades.
"[1, 0]",There is a spade.,"There is a triangle, but there is nothing besides a triangle.",2,False,,exh-clausal,,"[0, 1]",0,"[0, 0, 0]",,"[9, 6, 2]","[3, 2, 9]",0,2,13.272816666666667,,False,"[0, 0, 0]",0,True,0,2,filler,undefined,1521,,"[9, 7, 0]",870,1,"There is a triangle, but there is nothing besides a triangle."
"[1, 0]",There is a spade.,2 + 8 = ?,2,False,,exh-clausal,,"[1, 0]",1,"[6, 0, 0]",,"[10, 2, 8]","[3, 2, 4]",0,3,13.272816666666667,,False,"[0, 0, 0]",0,True,0,2,filler,undefined,4571,,"[16, 8, 8]",1006,0,8 + 8 = ?
"[1, 0]",Some of the symbols are ticks.,"Some of the symbols are hearts, but not all of them are hearts.",0,False,,exh-clausal,,"[0, 1]",0,"[0, 0, 0]",,"[4, 1, 7]","[2, 7, 0]",0,2,13.272816666666667,,False,"[0, 0, 0]",0,True,0,2,response,undefined,1186,,"[4, 6, 7]",334,1,"Some of the symbols are hearts, but not all of them are hearts."
"[0, 1]",There are four notes.,3 + 6 = ?,1,False,,exh-clausal,,"[1, 0]",0,"[9, 0, 0]",,"[9, 3, 6]","[8, 4, 6]",1,3,13.272816666666667,,True,"[5, 0, 0]",0,False,0,2,filler,undefined,3663,,"[2, 1, 1]",1183,0,1 + 1 = ?
"[1, 0]",There is a club.,There is a club.,2,True,,exh-clausal,,"[1, 0]",0,"[0, 0, 0]",,"[1, 0, 6]","[1, 0, 9]",0,1,13.272816666666667,,True,"[0, 0, 0]",0,True,0,2,filler,undefined,1825,,"[5, 7, 2]",1058,0,There is a square.
"[1, 0]",There is a triangle.,3 + 0 = ?,2,True,,exh-clausal,,"[0, 1]",1,"[5, 0, 0]",,"[3, 3, 0]","[9, 0, 7]",0,3,13.272816666666667,,True,"[9, 0, 0]",0,True,0,2,response,undefined,6381,,"[16, 9, 7]",895,1,9 + 7 = ?
"[1, 0]",Some of the symbols are stars.,4 + 2 = ?,0,False,,exh-clausal,,"[1, 0]",0,"[7, 0, 0]",,"[6, 4, 2]","[6, 2, 5]",0,3,13.272816666666667,,True,"[7, 0, 0]",0,False,1,2,filler,undefined,6304,,"[3, 1, 2]",654,0,1 + 2 = ?
"[1, 0]",There is a club.,There is a tick.,2,True,,exh-clausal,,"[1, 0]",0,"[0, 0, 0]",,"[2, 8, 6]","[1, 3, 0]",0,1,13.272816666666667,,True,"[0, 0, 0]",0,True,0,2,filler,undefined,1536,,"[9, 5, 6]",712,0,There is a triangle.
"[1, 0]",Some of the symbols are spades.,"Some of the symbols are clubs, but not all of them are clubs.",0,True,,exh-clausal,,"[1, 0]",0,"[0, 0, 0]",,"[1, 6, 2]","[3, 6, 5]",0,2,13.272816666666667,,True,"[0, 0, 0]",1,True,0,2,filler,undefined,1792,,"[7, 9, 3]",441,0,"Some of the symbols are circles, but not all of them are circles."
"[0, 1]",There is a diamond.,2 + 4 = ?,2,True,,exh-clausal,,"[1, 0]",0,"[6, 0, 0]",,"[6, 2, 4]","[0, 9, 2]",1,3,13.272816666666667,,True,"[3, 0, 0]",0,True,1,2,filler,undefined,11540,,"[8, 5, 3]",1012,0,5 + 3 = ?
"[1, 0]",Some of the symbols are ticks.,Some of the symbols are hearts.,0,False,,exh-clausal,,"[0, 1]",0,"[0, 0, 0]",,"[4, 6, 3]","[2, 3, 6]",0,0,13.272816666666667,,False,"[0, 0, 0]",0,True,0,2,filler,undefined,1211,,"[2, 8, 9]",380,1,Some of the symbols are ticks.
"[0, 1]",There are four ticks.,There are four circles.,1,True,,exh-clausal,,"[0, 1]",1,"[0, 0, 0]",,"[7, 5, 4]","[2, 0, 3]",1,1,13.272816666666667,,True,"[0, 0, 0]",1,True,1,2,filler,undefined,4071,,"[5, 0, 3]",1126,1,There are four squares.
"[1, 0]",There are four notes.,"There are four clubs, but there are no more than four clubs.",1,False,,exh-clausal,,"[1, 0]",1,"[0, 0, 0]",,"[1, 2, 3]","[8, 7, 2]",0,2,13.272816666666667,,False,"[0, 0, 0]",0,True,0,2,response,undefined,2933,,"[5, 9, 2]",859,0,"There are four squares, but there are no more than four squares."
"[0, 1]",There is a tick.,There is a heart.,2,False,,exh-clausal,,"[1, 0]",1,"[0, 0, 0]",,"[4, 1, 8]","[2, 5, 1]",1,0,13.272816666666667,,False,"[0, 0, 0]",0,False,0,2,response,undefined,2148,,"[9, 0, 6]",608,0,There is a triangle.
"[1, 0]",There are four triangles.,There are four notes.,1,False,,exh-clausal,,"[0, 1]",0,"[0, 0, 0]",,"[8, 1, 0]","[9, 7, 2]",0,0,13.272816666666667,,False,"[0, 0, 0]",0,True,0,2,response,undefined,1964,,"[4, 1, 8]",616,1,There are four hearts.
"[0, 1]",There is a club.,There is a square.,2,False,,exh-clausal,,"[1, 0]",0,"[0, 0, 0]",,"[5, 4, 9]","[1, 3, 9]",1,1,13.272816666666667,,True,"[0, 0, 0]",0,False,0,2,response,undefined,1988,,"[0, 3, 8]",624,0,There is a diamond.
"[1, 0]",There is a spade.,"There is a star, but there is nothing besides a star.",2,False,,exh-clausal,,"[1, 0]",0,"[0, 0, 0]",,"[6, 1, 4]","[3, 8, 2]",0,2,13.272816666666667,,True,"[0, 0, 0]",0,False,1,2,response,undefined,2390,,"[5, 7, 0]",775,0,"There is a square, but there is nothing besides a square."
"[0, 1]",There is a star.,There is a diamond.,2,False,,exh-clausal,,"[1, 0]",0,"[0, 0, 0]",,"[0, 3, 6]","[6, 7, 0]",1,0,13.272816666666667,,True,"[0, 0, 0]",0,False,0,2,filler,undefined,2044,,"[1, 2, 9]",675,0,There is a club.
"[1, 0]",There are four diamonds.,3 + 9 = ?,1,False,,exh-clausal,,"[1, 0]",0,"[2, 0, 0]",,"[12, 3, 9]","[0, 6, 4]",0,3,13.272816666666667,,True,"[1, 0, 0]",0,False,1,2,filler,undefined,7885,,"[15, 7, 8]",1004,0,7 + 8 = ?
"[0, 1]",There is a triangle.,There is a square.,2,True,,exh-clausal,,"[1, 0]",0,"[0, 0, 0]",,"[5, 4, 3]","[9, 5, 7]",1,0,13.272816666666667,,True,"[0, 0, 0]",0,True,1,2,response,undefined,2219,,"[9, 8, 7]",653,0,There is a triangle.
"[0, 1]",There is a triangle.,"There is a club, but there is nothing besides a club.",2,False,,exh-clausal,,"[1, 0]",0,"[0, 0, 0]",,"[1, 9, 8]","[9, 4, 7]",1,2,13.272816666666667,,True,"[0, 0, 0]",0,False,0,2,filler,undefined,1860,,"[1, 3, 9]",603,0,"There is a club, but there is nothing besides a club."
"[0, 1]",There is a triangle.,There is a tick.,2,False,,exh-clausal,,"[1, 0]",0,"[0, 0, 0]",,"[2, 9, 0]","[9, 5, 7]",1,1,13.272816666666667,,True,"[0, 0, 0]",0,False,0,2,filler,undefined,1823,,"[5, 9, 1]",591,0,There is a square.
"[1, 0]",Some of the symbols are squares.,0 + 9 = ?,0,False,,exh-clausal,,"[1, 0]",0,"[7, 0, 0]",,"[9, 0, 9]","[5, 6, 8]",0,3,13.272816666666667,,True,"[7, 0, 0]",1,False,1,2,filler,undefined,4928,,"[1, 1, 0]",671,0,1 + 0 = ?
"[0, 1]",There is a heart.,There is a spade.,2,False,,exh-clausal,,"[1, 0]",1,"[0, 0, 0]",,"[3, 2, 0]","[4, 5, 6]",1,0,13.272816666666667,,False,"[0, 0, 0]",0,True,1,2,response,undefined,1840,,"[1, 3, 5]",673,0,There is a club.
,,,,,,,bot_check,,,,"[0, 'Barbara']",,,,,11.071283333333334,1,,,,,,3,,undefined,,Barbara,,,,
"[0, 1]",Some of the symbols are triangles.,Some of the symbols are triangles.,0,True,,exh-clausal,,"[1, 0]",0,"[0, 0, 0]",,"[9, 8, 4]","[9, 8, 5]",1,1,11.071283333333334,,True,"[0, 0, 0]",1,True,1,3,response,undefined,12609,,"[3, 9, 0]",2436,0,Some of the symbols are spades.
"[1, 0]",There are four triangles.,8 + 4 = ?,1,False,,exh-clausal,,"[1, 0]",1,"[6, 0, 0]",,"[12, 8, 4]","[9, 4, 3]",0,3,11.071283333333334,,False,"[7, 0, 0]",1,False,1,3,filler,undefined,10297,,"[6, 4, 2]",2403,0,4 + 2 = ?
"[0, 1]",Some of the symbols are circles.,Some of the symbols are diamonds.,0,True,,exh-clausal,,"[0, 1]",1,"[0, 0, 0]",,"[0, 5, 8]","[7, 9, 4]",1,1,11.071283333333334,,True,"[0, 0, 0]",1,True,1,3,response,undefined,9106,,"[7, 0, 9]",3867,1,Some of the symbols are circles.
"[0, 1]",There is a square.,There is a triangle.,2,True,,exh-clausal,,"[1, 0]",0,"[0, 0, 0]",,"[9, 8, 7]","[5, 0, 6]",1,1,11.071283333333334,,True,"[0, 0, 0]",1,True,1,3,filler,undefined,10340,,"[0, 8, 6]",2677,0,There is a diamond.
"[0, 1]",Some of the symbols are spades.,9 + 6 = ?,0,False,,exh-clausal,,"[0, 1]",0,"[1, 0, 0]",,"[15, 9, 6]","[3, 7, 1]",1,3,11.071283333333334,,False,"[7, 0, 0]",1,True,1,3,response,undefined,14563,,"[4, 0, 4]",7818,1,0 + 4 = ?
"[0, 1]",There is a note.,There is a tick.,2,True,,exh-clausal,,"[0, 1]",1,"[0, 0, 0]",,"[2, 3, 7]","[8, 4, 1]",1,0,11.071283333333334,,True,"[0, 0, 0]",0,True,1,3,response,undefined,13735,,"[0, 4, 9]",7382,1,There is a diamond.
"[1, 0]",Some of the symbols are spades.,4 + 4 = ?,0,False,,exh-clausal,,"[0, 1]",1,"[5, 0, 0]",,"[8, 4, 4]","[3, 6, 4]",0,3,11.071283333333334,,True,"[8, 0, 0]",1,False,1,3,filler,undefined,5943,,"[9, 9, 0]",1806,1,9 + 0 = ?
"[0, 1]",There are four circles.,"There are four circles, but there are no more than four circles.",1,True,,exh-clausal,,"[1, 0]",0,"[0, 0, 0]",,"[7, 5, 2]","[7, 4, 3]",1,2,11.071283333333334,,True,"[0, 0, 0]",1,True,1,3,response,undefined,7560,,"[3, 5, 9]",3032,0,"There are four spades, but there are no more than four spades."
"[1, 0]",There are four notes.,4 + 8 = ?,1,False,,exh-clausal,,"[1, 0]",0,"[0, 0, 0]",,"[12, 4, 8]","[8, 7, 2]",0,3,11.071283333333334,,True,"[8, 0, 0]",1,False,1,3,response,undefined,7408,,"[9, 8, 1]",2607,0,8 + 1 = ?
"[0, 1]",There is a circle.,There is a club.,2,True,,exh-clausal,,"[1, 0]",0,"[0, 0, 0]",,"[1, 5, 9]","[7, 9, 5]",1,1,11.071283333333334,,True,"[0, 0, 0]",1,True,1,3,response,undefined,7418,,"[6, 9, 7]",3776,0,There is a star.
"[1, 0]",Some of the symbols are spades.,Some of the symbols are squares.,0,True,,exh-clausal,,"[1, 0]",0,"[0, 0, 0]",,"[5, 4, 0]","[3, 5, 9]",0,0,11.071283333333334,,True,"[0, 0, 0]",1,True,0,3,filler,undefined,10400,,"[7, 6, 9]",3207,0,Some of the symbols are circles.
"[1, 0]",Some of the symbols are spades.,Some of the symbols are diamonds.,0,True,,exh-clausal,,"[1, 0]",0,"[0, 0, 0]",,"[0, 6, 9]","[3, 8, 9]",0,1,11.071283333333334,,True,"[0, 0, 0]",1,True,0,3,filler,undefined,5560,,"[2, 9, 0]",1687,0,Some of the symbols are ticks.
"[1, 0]",There are four ticks.,There are four spades.,1,True,,exh-clausal,,"[1, 0]",0,"[0, 0, 0]",,"[3, 1, 7]","[2, 8, 3]",0,1,11.071283333333334,,True,"[0, 0, 0]",1,True,0,3,response,undefined,4359,,"[0, 8, 4]",1342,0,There are four diamonds.
"[1, 0]",There is a tick.,8 + 4 = ?,2,False,,exh-clausal,,"[1, 0]",1,"[5, 0, 0]",,"[12, 8, 4]","[2, 4, 5]",0,3,11.071283333333334,,False,"[1, 0, 0]",1,True,0,3,filler,undefined,5457,,"[3, 2, 1]",2247,0,2 + 1 = ?
"[1, 0]",Some of the symbols are squares.,"Some of the symbols are triangles, but not all of them are triangles.",0,True,,exh-clausal,,"[0, 1]",1,"[0, 0, 0]",,"[9, 3, 6]","[5, 4, 9]",0,2,11.071283333333334,,True,"[0, 0, 0]",1,True,0,3,filler,undefined,4648,,"[1, 7, 4]",1487,1,"Some of the symbols are clubs, but not all of them are clubs."
"[1, 0]",There are four hearts.,9 + 5 = ?,1,False,,exh-clausal,,"[1, 0]",1,"[6, 0, 0]",,"[14, 9, 5]","[4, 5, 6]",0,3,11.071283333333334,,False,"[0, 0, 0]",1,True,0,3,response,undefined,8144,,"[17, 9, 8]",4199,0,9 + 8 = ?
"[1, 0]",There are four ticks.,There are four triangles.,1,True,,exh-clausal,,"[1, 0]",0,"[0, 0, 0]",,"[9, 6, 8]","[2, 5, 6]",0,0,11.071283333333334,,True,"[0, 0, 0]",1,True,0,3,response,undefined,5223,,"[0, 9, 6]",1990,0,There are four diamonds.
"[1, 0]",There is a circle.,"There is a club, but there is nothing besides a club.",2,True,,exh-clausal,,"[1, 0]",0,"[0, 0, 0]",,"[1, 7, 5]","[7, 6, 3]",0,2,11.071283333333334,,True,"[0, 0, 0]",1,True,0,3,filler,undefined,5192,,"[4, 1, 2]",1478,0,"There is a heart, but there is nothing besides a heart."
"[1, 0]",Some of the symbols are spades.,Some of the symbols are triangles.,0,True,,exh-clausal,,"[1, 0]",0,"[0, 0, 0]",,"[9, 3, 2]","[3, 5, 1]",0,0,11.071283333333334,,True,"[0, 0, 0]",1,True,0,3,filler,undefined,5353,,"[7, 1, 8]",1327,0,Some of the symbols are circles.
"[1, 0]",Some of the symbols are clubs.,Some of the symbols are ticks.,0,True,,exh-clausal,,"[0, 1]",1,"[0, 0, 0]",,"[2, 0, 5]","[1, 0, 2]",0,1,11.071283333333334,,True,"[0, 0, 0]",1,True,0,3,response,undefined,6017,,"[1, 7, 8]",2160,1,Some of the symbols are clubs.
"[1, 0]",Some of the symbols are diamonds.,3 + 3 = ?,0,False,,exh-clausal,,"[0, 1]",0,"[7, 0, 0]",,"[6, 3, 3]","[0, 5, 3]",0,3,11.071283333333334,,False,"[4, 0, 0]",1,False,1,3,filler,undefined,4449,,"[4, 3, 1]",1863,1,3 + 1 = ?
"[1, 0]",There is a heart.,"There is a heart, but there is nothing besides a heart.",2,True,,exh-clausal,,"[0, 1]",1,"[0, 0, 0]",,"[4, 9, 8]","[4, 1, 8]",0,2,11.071283333333334,,True,"[0, 0, 0]",1,True,0,3,filler,undefined,4535,,"[9, 1, 8]",1327,1,"There is a triangle, but there is nothing besides a triangle."
"[1, 0]",Some of the symbols are clubs.,"Some of the symbols are clubs, but not all of them are clubs.",0,True,,exh-clausal,,"[0, 1]",1,"[0, 0, 0]",,"[1, 3, 7]","[1, 8, 0]",0,2,11.071283333333334,,True,"[0, 0, 0]",1,True,0,3,response,undefined,6575,,"[0, 6, 5]",2814,1,"Some of the symbols are diamonds, but not all of them are diamonds."
"[0, 1]",There is a club.,6 + 5 = ?,2,True,,exh-clausal,,"[1, 0]",0,"[5, 0, 0]",,"[11, 6, 5]","[1, 2, 7]",1,3,11.071283333333334,,True,"[6, 0, 0]",1,True,1,3,filler,undefined,4272,,"[11, 9, 2]",1270,0,9 + 2 = ?
"[0, 1]",There are four stars.,There are four squares.,1,True,,exh-clausal,,"[0, 1]",1,"[0, 0, 0]",,"[5, 2, 0]","[6, 4, 7]",1,1,11.071283333333334,,True,"[0, 0, 0]",1,True,1,3,response,undefined,3679,,"[8, 1, 0]",1278,1,There are four notes.
"[0, 1]",There are four squares.,There are four notes.,1,True,,exh-clausal,,"[0, 1]",1,"[0, 0, 0]",,"[8, 1, 4]","[5, 9, 7]",1,1,11.071283333333334,,True,"[0, 0, 0]",1,True,1,3,response,undefined,3656,,"[6, 9, 8]",1470,1,There are four stars.
"[0, 1]",Some of the symbols are notes.,Some of the symbols are notes.,0,True,,exh-clausal,,"[1, 0]",0,"[0, 0, 0]",,"[8, 0, 3]","[8, 9, 3]",1,0,11.071283333333334,,True,"[0, 0, 0]",1,True,1,3,response,undefined,5697,,"[5, 6, 9]",2855,0,Some of the symbols are squares.
"[1, 0]",There are four notes.,There are four stars.,1,True,,exh-clausal,,"[1, 0]",0,"[0, 0, 0]",,"[6, 5, 2]","[8, 5, 4]",0,0,11.071283333333334,,True,"[0, 0, 0]",1,True,0,3,filler,undefined,7031,,"[8, 5, 9]",2382,0,There are four notes.
"[1, 0]",Some of the symbols are notes.,"Some of the symbols are squares, but not all of them are squares.",0,True,,exh-clausal,,"[0, 1]",1,"[0, 0, 0]",,"[5, 2, 0]","[8, 0, 9]",0,2,11.071283333333334,,True,"[0, 0, 0]",1,True,0,3,response,undefined,6129,,"[5, 1, 6]",2760,1,"Some of the symbols are squares, but not all of them are squares."
"[0, 1]",There are four hearts.,"There are four ticks, but there are no more than four ticks.",1,True,,exh-clausal,,"[1, 0]",0,"[0, 0, 0]",,"[2, 3, 1]","[4, 5, 1]",1,2,11.071283333333334,,True,"[0, 0, 0]",1,True,1,3,filler,undefined,4239,,"[6, 7, 8]",1470,0,"There are four stars, but there are no more than four stars."
"[0, 1]",Some of the symbols are stars.,Some of the symbols are stars.,0,True,,exh-clausal,,"[0, 1]",1,"[0, 0, 0]",,"[6, 9, 3]","[6, 2, 4]",1,0,11.071283333333334,,True,"[0, 0, 0]",1,True,1,3,filler,undefined,4783,,"[0, 5, 6]",1870,1,Some of the symbols are diamonds.
"[0, 1]",There is a spade.,There is a heart.,2,True,,exh-clausal,,"[1, 0]",0,"[0, 0, 0]",,"[4, 5, 0]","[3, 0, 7]",1,0,11.071283333333334,,True,"[0, 0, 0]",0,True,1,3,response,undefined,3944,,"[8, 4, 3]",1279,0,There is a note.
"[1, 0]",There is a triangle.,0 + 9 = ?,2,True,,exh-clausal,,"[1, 0]",0,"[9, 0, 0]",,"[9, 0, 9]","[9, 6, 1]",0,3,11.071283333333334,,True,"[9, 0, 0]",1,True,0,3,filler,undefined,5178,,"[5, 3, 2]",2247,0,3 + 2 = ?
"[1, 0]",There are four stars.,There are four hearts.,1,True,,exh-clausal,,"[1, 0]",0,"[0, 0, 0]",,"[4, 1, 8]","[6, 1, 0]",0,0,11.071283333333334,,True,"[0, 0, 0]",1,True,0,3,filler,undefined,3720,,"[1, 7, 9]",1215,0,There are four clubs.
"[1, 0]",There is a club.,"There is a square, but there is nothing besides a square.",2,True,,exh-clausal,,"[1, 0]",0,"[0, 0, 0]",,"[5, 0, 3]","[1, 7, 6]",0,2,11.071283333333334,,True,"[0, 0, 0]",0,True,0,3,response,undefined,6135,,"[7, 5, 2]",3926,0,"There is a circle, but there is nothing besides a circle."
"[1, 0]",There is a tick.,"There is a circle, but there is nothing besides a circle.",2,True,,exh-clausal,,"[1, 0]",0,"[0, 0, 0]",,"[7, 9, 0]","[2, 0, 5]",0,2,11.071283333333334,,True,"[0, 0, 0]",1,True,0,3,filler,undefined,4344,,"[2, 8, 0]",1158,0,"There is a tick, but there is nothing besides a tick."
"[0, 1]",There are four notes.,"There are four stars, but there are no more than four stars.",1,True,,exh-clausal,,"[1, 0]",0,"[0, 0, 0]",,"[6, 3, 8]","[8, 1, 7]",1,2,11.071283333333334,,True,"[0, 0, 0]",1,True,1,3,filler,undefined,4231,,"[1, 3, 9]",1766,0,"There are four clubs, but there are no more than four clubs."
"[1, 0]",There is a tick.,"There is a star, but there is nothing besides a star.",2,True,,exh-clausal,,"[0, 1]",1,"[0, 0, 0]",,"[6, 8, 1]","[2, 0, 8]",0,2,11.071283333333334,,True,"[0, 0, 0]",0,True,0,3,response,undefined,3671,,"[2, 6, 1]",1510,1,"There is a tick, but there is nothing besides a tick."
"[0, 1]",There are four circles.,9 + 3 = ?,1,False,,exh-clausal,,"[0, 1]",1,"[2, 0, 0]",,"[12, 9, 3]","[7, 8, 6]",1,3,11.071283333333334,,True,"[8, 0, 0]",1,False,0,3,filler,undefined,3927,,"[12, 6, 6]",1055,1,6 + 6 = ?
"[0, 1]",There are four circles.,There are four ticks.,1,True,,exh-clausal,,"[1, 0]",0,"[0, 0, 0]",,"[2, 1, 0]","[7, 3, 4]",1,0,11.071283333333334,,True,"[0, 0, 0]",0,True,1,3,response,undefined,4216,,"[1, 9, 2]",1198,0,There are four clubs.
"[0, 1]",There is a spade.,There is a note.,2,True,,exh-clausal,,"[1, 0]",0,"[0, 0, 0]",,"[8, 9, 3]","[3, 8, 4]",1,0,11.071283333333334,,True,"[0, 0, 0]",1,True,1,3,filler,undefined,6664,,"[6, 0, 8]",1991,0,There is a star.
"[1, 0]",Some of the symbols are ticks.,Some of the symbols are diamonds.,0,True,,exh-clausal,,"[0, 1]",1,"[0, 0, 0]",,"[0, 4, 9]","[2, 3, 7]",0,0,11.071283333333334,,True,"[0, 0, 0]",1,True,0,3,filler,undefined,5704,,"[4, 3, 5]",1823,1,Some of the symbols are hearts.
"[0, 1]",Some of the symbols are ticks.,Some of the symbols are spades.,0,True,,exh-clausal,,"[0, 1]",1,"[0, 0, 0]",,"[3, 1, 5]","[2, 0, 5]",1,1,11.071283333333334,,True,"[0, 0, 0]",1,True,1,3,response,undefined,8175,,"[1, 8, 3]",2503,1,Some of the symbols are clubs.
"[1, 0]",Some of the symbols are ticks.,Some of the symbols are diamonds.,0,True,,exh-clausal,,"[0, 1]",1,"[0, 0, 0]",,"[0, 4, 8]","[2, 4, 3]",0,0,11.071283333333334,,True,"[0, 0, 0]",1,True,0,3,response,undefined,6458,,"[9, 0, 5]",2433,1,Some of the symbols are triangles.
"[1, 0]",There are four squares.,There are four stars.,1,True,,exh-clausal,,"[1, 0]",0,"[0, 0, 0]",,"[6, 7, 4]","[5, 6, 8]",0,1,11.071283333333334,,True,"[0, 0, 0]",1,True,0,3,response,undefined,9391,,"[6, 1, 3]",2334,0,There are four stars.
"[0, 1]",There are four notes.,7 + 0 = ?,1,False,,exh-clausal,,"[0, 1]",1,"[7, 0, 0]",,"[7, 7, 0]","[8, 3, 5]",1,3,11.071283333333334,,True,"[4, 0, 0]",1,False,0,3,filler,undefined,3703,,"[16, 8, 8]",1198,1,8 + 8 = ?
"[0, 1]",There is a spade.,0 + 8 = ?,2,True,,exh-clausal,,"[1, 0]",0,"[4, 0, 0]",,"[8, 0, 8]","[3, 8, 4]",1,3,11.071283333333334,,True,"[4, 0, 0]",1,True,1,3,filler,undefined,4319,,"[8, 3, 5]",1422,0,3 + 5 = ?
"[0, 1]",Some of the symbols are ticks.,Some of the symbols are diamonds.,0,True,,exh-clausal,,"[1, 0]",0,"[0, 0, 0]",,"[0, 4, 1]","[2, 0, 5]",1,1,11.071283333333334,,True,"[0, 0, 0]",1,True,1,3,filler,undefined,4352,,"[8, 6, 5]",1182,0,Some of the symbols are notes.
"[1, 0]",There is a square.,There is a club.,2,True,,exh-clausal,,"[0, 1]",1,"[0, 0, 0]",,"[1, 7, 2]","[5, 0, 6]",0,1,11.071283333333334,,True,"[0, 0, 0]",1,True,0,3,filler,undefined,4248,,"[1, 2, 9]",1206,1,There is a club.
"[0, 1]",Some of the symbols are ticks.,1 + 3 = ?,0,False,,exh-clausal,,"[0, 1]",0,"[0, 0, 0]",,"[4, 1, 3]","[2, 7, 8]",1,3,11.071283333333334,,False,"[1, 0, 0]",1,True,1,3,response,undefined,9992,,"[15, 9, 6]",1998,1,9 + 6 = ?
"[1, 0]",There are four notes.,There are four squares.,1,True,,exh-clausal,,"[0, 1]",1,"[0, 0, 0]",,"[5, 2, 1]","[8, 5, 1]",0,1,11.071283333333334,,True,"[0, 0, 0]",1,True,0,3,filler,undefined,2943,,"[6, 0, 4]",998,1,There are four stars.
"[1, 0]",There is a diamond.,There is a diamond.,2,True,,exh-clausal,,"[0, 1]",1,"[0, 0, 0]",,"[0, 4, 6]","[0, 8, 2]",0,1,11.071283333333334,,True,"[0, 0, 0]",1,True,0,3,filler,undefined,4864,,"[2, 9, 7]",2694,1,There is a tick.
"[0, 1]",There are four clubs.,"There are four circles, but there are no more than four circles.",1,True,,exh-clausal,,"[0, 1]",1,"[0, 0, 0]",,"[7, 0, 2]","[1, 7, 6]",1,2,11.071283333333334,,True,"[0, 0, 0]",1,True,1,3,filler,undefined,3552,,"[8, 5, 7]",1246,1,"There are four notes, but there are no more than four notes."
"[0, 1]",There is a heart.,There is a tick.,2,True,,exh-clausal,,"[0, 1]",1,"[0, 0, 0]",,"[2, 5, 7]","[4, 1, 3]",1,0,11.071283333333334,,True,"[0, 0, 0]",1,True,1,3,filler,undefined,3936,,"[0, 7, 2]",1534,1,There is a diamond.
"[1, 0]",Some of the symbols are clubs.,"Some of the symbols are clubs, but not all of them are clubs.",0,True,,exh-clausal,,"[1, 0]",0,"[0, 0, 0]",,"[1, 5, 2]","[1, 5, 7]",0,2,11.071283333333334,,True,"[0, 0, 0]",1,True,0,3,filler,undefined,4424,,"[9, 2, 6]",1910,0,"Some of the symbols are triangles, but not all of them are triangles."
"[1, 0]",There are four clubs.,There are four diamonds.,1,True,,exh-clausal,,"[1, 0]",0,"[0, 0, 0]",,"[0, 8, 3]","[1, 0, 9]",0,0,11.071283333333334,,True,"[0, 0, 0]",0,True,0,3,response,undefined,5330,,"[3, 9, 7]",1609,0,There are four spades.
"[1, 0]",There is a heart.,There is a note.,2,True,,exh-clausal,,"[0, 1]",1,"[0, 0, 0]",,"[8, 0, 1]","[4, 6, 1]",0,0,11.071283333333334,,True,"[0, 0, 0]",0,True,0,3,response,undefined,3384,,"[5, 2, 3]",951,1,There is a square.
"[1, 0]",There is a tick.,There is a tick.,2,True,,exh-clausal,,"[0, 1]",1,"[0, 0, 0]",,"[2, 3, 5]","[2, 4, 8]",0,0,11.071283333333334,,True,"[0, 0, 0]",1,True,0,3,filler,undefined,3568,,"[5, 2, 7]",1311,1,There is a square.
"[0, 1]",Some of the symbols are notes.,1 + 8 = ?,0,True,,exh-clausal,,"[1, 0]",0,"[6, 0, 0]",,"[9, 1, 8]","[8, 9, 0]",1,3,11.071283333333334,,True,"[4, 0, 0]",1,True,1,3,response,undefined,4168,,"[4, 4, 0]",1853,0,4 + 0 = ?
"[0, 1]",There are four stars.,0 + 2 = ?,1,True,,exh-clausal,,"[0, 1]",1,"[3, 0, 0]",,"[2, 0, 2]","[6, 2, 1]",1,3,11.071283333333334,,True,"[2, 0, 0]",1,True,1,3,filler,undefined,6056,,"[15, 7, 8]",2352,1,7 + 8 = ?
"[0, 1]",There are four spades.,"There are four ticks, but there are no more than four ticks.",1,True,,exh-clausal,,"[1, 0]",0,"[0, 0, 0]",,"[2, 8, 4]","[3, 9, 2]",1,2,11.071283333333334,,True,"[0, 0, 0]",1,True,1,3,response,undefined,4056,,"[6, 8, 3]",1959,0,"There are four stars, but there are no more than four stars."
"[0, 1]",Some of the symbols are ticks.,7 + 8 = ?,0,False,,exh-clausal,,"[0, 1]",0,"[7, 0, 0]",,"[15, 7, 8]","[2, 4, 7]",1,3,11.071283333333334,,False,"[9, 0, 0]",1,True,1,3,response,undefined,6096,,"[2, 2, 0]",1736,1,2 + 0 = ?
"[1, 0]",There are four circles.,"There are four ticks, but there are no more than four ticks.",1,True,,exh-clausal,,"[1, 0]",0,"[0, 0, 0]",,"[2, 8, 7]","[7, 8, 6]",0,2,11.071283333333334,,True,"[0, 0, 0]",1,True,0,3,response,undefined,3887,,"[0, 2, 5]",1734,0,"There are four diamonds, but there are no more than four diamonds."
"[0, 1]",There are four hearts.,There are four squares.,1,True,,exh-clausal,,"[0, 1]",1,"[0, 0, 0]",,"[5, 3, 9]","[4, 8, 6]",1,0,11.071283333333334,,True,"[0, 0, 0]",1,True,1,3,filler,undefined,5465,,"[8, 7, 6]",1743,1,There are four notes.
"[0, 1]",Some of the symbols are squares.,Some of the symbols are circles.,0,True,,exh-clausal,,"[0, 1]",1,"[0, 0, 0]",,"[7, 3, 1]","[5, 8, 1]",1,1,11.071283333333334,,True,"[0, 0, 0]",1,True,1,3,filler,undefined,4287,,"[3, 4, 7]",1758,1,Some of the symbols are spades.
"[1, 0]",Some of the symbols are spades.,"Some of the symbols are clubs, but not all of them are clubs.",0,True,,exh-clausal,,"[0, 1]",1,"[0, 0, 0]",,"[1, 9, 4]","[3, 6, 7]",0,2,11.071283333333334,,True,"[0, 0, 0]",1,True,0,3,response,undefined,4609,,"[8, 7, 5]",1767,1,"Some of the symbols are notes, but not all of them are notes."
"[1, 0]",There are four ticks.,There are four diamonds.,1,True,,exh-clausal,,"[0, 1]",1,"[0, 0, 0]",,"[0, 1, 4]","[2, 7, 0]",0,1,11.071283333333334,,True,"[0, 0, 0]",1,True,0,3,filler,undefined,4416,,"[0, 9, 6]",1319,1,There are four diamonds.
"[1, 0]",There is a square.,There is a tick.,2,True,,exh-clausal,,"[1, 0]",0,"[0, 0, 0]",,"[2, 7, 9]","[5, 4, 9]",0,1,11.071283333333334,,True,"[0, 0, 0]",0,True,0,3,response,undefined,6600,,"[9, 6, 5]",3647,0,There is a triangle.
"[0, 1]",There are four clubs.,There are four notes.,1,True,,exh-clausal,,"[0, 1]",1,"[0, 0, 0]",,"[8, 1, 4]","[1, 5, 6]",1,1,11.071283333333334,,True,"[0, 0, 0]",1,True,1,3,filler,undefined,4776,,"[3, 4, 2]",1216,1,There are four spades.
"[0, 1]",There is a diamond.,"There is a star, but there is nothing besides a star.",2,True,,exh-clausal,,"[1, 0]",0,"[0, 0, 0]",,"[6, 9, 0]","[0, 1, 4]",1,2,11.071283333333334,,True,"[0, 0, 0]",0,True,1,3,response,undefined,4496,,"[4, 0, 2]",2094,0,"There is a heart, but there is nothing besides a heart."
"[0, 1]",There is a club.,"There is a triangle, but there is nothing besides a triangle.",2,True,,exh-clausal,,"[1, 0]",0,"[0, 0, 0]",,"[9, 4, 7]","[1, 2, 4]",1,2,11.071283333333334,,True,"[0, 0, 0]",1,True,1,3,filler,undefined,4383,,"[5, 1, 8]",1702,0,"There is a square, but there is nothing besides a square."
"[0, 1]",There are four notes.,9 + 4 = ?,1,False,,exh-clausal,,"[0, 1]",1,"[2, 0, 0]",,"[13, 9, 4]","[8, 0, 5]",1,3,11.071283333333334,,True,"[1, 0, 0]",1,False,0,3,response,undefined,6088,,"[15, 9, 6]",2182,1,9 + 6 = ?
"[1, 0]",There are four clubs.,There are four hearts.,1,True,,exh-clausal,,"[0, 1]",1,"[0, 0, 0]",,"[4, 7, 3]","[1, 9, 6]",0,0,11.071283333333334,,True,"[0, 0, 0]",1,True,0,3,filler,undefined,5560,,"[9, 0, 3]",1751,1,There are four triangles.
"[0, 1]",There are four diamonds.,"There are four triangles, but there are no more than four triangles.",1,True,,exh-clausal,,"[1, 0]",0,"[0, 0, 0]",,"[9, 4, 1]","[0, 2, 9]",1,2,11.071283333333334,,True,"[0, 0, 0]",1,True,1,3,filler,undefined,3912,,"[9, 2, 0]",1359,0,"There are four triangles, but there are no more than four triangles."
"[0, 1]",Some of the symbols are squares.,1 + 6 = ?,0,False,,exh-clausal,,"[0, 1]",0,"[5, 0, 0]",,"[7, 1, 6]","[5, 2, 8]",1,3,11.071283333333334,,False,"[9, 0, 0]",1,True,1,3,filler,undefined,4056,,"[12, 6, 6]",1639,1,6 + 6 = ?
"[0, 1]",Some of the symbols are ticks.,Some of the symbols are stars.,0,True,,exh-clausal,,"[1, 0]",0,"[0, 0, 0]",,"[6, 1, 2]","[2, 6, 5]",1,1,11.071283333333334,,True,"[0, 0, 0]",1,True,1,3,filler,undefined,4296,,"[3, 5, 9]",1415,0,Some of the symbols are spades.
"[1, 0]",There are four spades.,There are four circles.,1,True,,exh-clausal,,"[0, 1]",1,"[0, 0, 0]",,"[7, 5, 6]","[3, 2, 0]",0,1,11.071283333333334,,True,"[0, 0, 0]",1,True,0,3,filler,undefined,4129,,"[9, 2, 0]",1135,1,There are four triangles.
"[0, 1]",There is a triangle.,There is a diamond.,2,True,,exh-clausal,,"[0, 1]",1,"[0, 0, 0]",,"[0, 6, 4]","[9, 0, 2]",1,1,11.071283333333334,,True,"[0, 0, 0]",1,True,1,3,response,undefined,4399,,"[1, 4, 8]",2159,1,There is a club.
"[0, 1]",There are four squares.,4 + 7 = ?,1,True,,exh-clausal,,"[1, 0]",0,"[2, 0, 0]",,"[11, 4, 7]","[5, 6, 1]",1,3,11.071283333333334,,True,"[3, 0, 0]",1,True,1,3,response,undefined,5689,,"[15, 7, 8]",1743,0,7 + 8 = ?
"[1, 0]",There is a triangle.,There is a note.,2,True,,exh-clausal,,"[0, 1]",1,"[0, 0, 0]",,"[8, 7, 0]","[9, 5, 4]",0,1,11.071283333333334,,True,"[0, 0, 0]",0,True,0,3,response,undefined,5599,,"[4, 7, 6]",3455,1,There is a heart.
"[0, 1]",Some of the symbols are triangles.,"Some of the symbols are triangles, but not all of them are triangles.",0,True,,exh-clausal,,"[1, 0]",0,"[0, 0, 0]",,"[9, 2, 7]","[9, 3, 7]",1,2,11.071283333333334,,True,"[0, 0, 0]",1,True,1,3,filler,undefined,4903,,"[0, 6, 1]",1351,0,"Some of the symbols are diamonds, but not all of them are diamonds."
"[0, 1]",There are four triangles.,"There are four hearts, but there are no more than four hearts.",1,True,,exh-clausal,,"[0, 1]",1,"[0, 0, 0]",,"[4, 7, 9]","[9, 5, 7]",1,2,11.071283333333334,,True,"[0, 0, 0]",1,True,1,3,response,undefined,4826,,"[0, 9, 2]",2567,1,"There are four diamonds, but there are no more than four diamonds."
"[0, 1]",Some of the symbols are diamonds.,"Some of the symbols are diamonds, but not all of them are diamonds.",0,True,,exh-clausal,,"[0, 1]",1,"[0, 0, 0]",,"[0, 4, 7]","[0, 5, 3]",1,2,11.071283333333334,,True,"[0, 0, 0]",1,True,1,3,filler,undefined,6648,,"[9, 3, 4]",1782,1,"Some of the symbols are triangles, but not all of them are triangles."
"[1, 0]",Some of the symbols are notes.,"Some of the symbols are clubs, but not all of them are clubs.",0,True,,exh-clausal,,"[0, 1]",1,"[0, 0, 0]",,"[1, 5, 7]","[8, 5, 1]",0,2,11.071283333333334,,True,"[0, 0, 0]",1,True,0,3,response,undefined,4624,,"[5, 2, 1]",1663,1,"Some of the symbols are squares, but not all of them are squares."
"[1, 0]",Some of the symbols are stars.,Some of the symbols are diamonds.,0,True,,exh-clausal,,"[1, 0]",0,"[0, 0, 0]",,"[0, 3, 1]","[6, 5, 1]",0,0,11.071283333333334,,True,"[0, 0, 0]",1,True,0,3,response,undefined,5728,,"[2, 3, 6]",2175,0,Some of the symbols are ticks.
"[0, 1]",There is a star.,4 + 6 = ?,2,False,,exh-clausal,,"[1, 0]",1,"[6, 0, 0]",,"[10, 4, 6]","[6, 0, 4]",1,3,11.071283333333334,,False,"[3, 0, 0]",0,False,0,3,response,undefined,7192,,"[13, 8, 5]",3007,0,8 + 5 = ?
"[1, 0]",There is a club.,8 + 7 = ?,2,True,,exh-clausal,,"[0, 1]",1,"[3, 0, 0]",,"[15, 8, 7]","[1, 7, 6]",0,3,11.071283333333334,,True,"[0, 0, 0]",0,True,0,3,response,undefined,3991,,"[12, 6, 6]",1231,1,6 + 6 = ?
"[0, 1]",There is a tick.,There is a club.,2,True,,exh-clausal,,"[0, 1]",1,"[0, 0, 0]",,"[1, 9, 5]","[2, 1, 3]",1,0,11.071283333333334,,True,"[0, 0, 0]",0,True,1,3,response,undefined,4136,,"[1, 9, 2]",1710,1,There is a club.
"[0, 1]",There are four triangles.,There are four spades.,1,True,,exh-clausal,,"[1, 0]",0,"[0, 0, 0]",,"[3, 4, 9]","[9, 3, 0]",1,0,11.071283333333334,,True,"[0, 0, 0]",1,True,1,3,response,undefined,4800,,"[8, 1, 2]",1534,0,There are four notes.
"[1, 0]",There is a star.,2 + 1 = ?,2,False,,exh-clausal,,"[0, 1]",0,"[8, 0, 0]",,"[3, 2, 1]","[6, 8, 3]",0,3,11.071283333333334,,False,"[0, 0, 0]",0,False,1,3,response,undefined,4056,,"[9, 6, 3]",1438,1,6 + 3 = ?
"[1, 0]",There is a square.,"There is a diamond, but there is nothing besides a diamond.",2,True,,exh-clausal,,"[1, 0]",0,"[0, 0, 0]",,"[0, 4, 2]","[5, 1, 6]",0,2,11.071283333333334,,True,"[0, 0, 0]",0,True,0,3,response,undefined,5175,,"[3, 8, 1]",2222,0,"There is a spade, but there is nothing besides a spade."
"[1, 0]",Some of the symbols are notes.,Some of the symbols are spades.,0,True,,exh-clausal,,"[0, 1]",1,"[0, 0, 0]",,"[3, 1, 5]","[8, 9, 5]",0,0,11.071283333333334,,True,"[0, 0, 0]",1,True,0,3,response,undefined,5655,,"[5, 1, 6]",1846,1,Some of the symbols are squares.
"[1, 0]",There is a diamond.,4 + 0 = ?,2,False,,exh-clausal,,"[1, 0]",1,"[0, 0, 0]",,"[4, 4, 0]","[0, 2, 4]",0,3,11.071283333333334,,False,"[2, 0, 0]",0,True,0,3,response,undefined,5948,,"[15, 9, 6]",2562,0,9 + 6 = ?
"[1, 0]",Some of the symbols are stars.,1 + 2 = ?,0,False,,exh-clausal,,"[1, 0]",1,"[4, 0, 0]",,"[3, 1, 2]","[6, 8, 1]",0,3,11.071283333333334,,False,"[9, 0, 0]",1,True,0,3,filler,undefined,3983,,"[5, 3, 2]",1230,0,3 + 2 = ?
"[0, 1]",There is a triangle.,There is a star.,2,True,,exh-clausal,,"[0, 1]",1,"[0, 0, 0]",,"[6, 2, 9]","[9, 2, 5]",1,0,11.071283333333334,,True,"[0, 0, 0]",1,True,1,3,filler,undefined,4480,,"[0, 4, 1]",1975,1,There is a diamond.
