correctPOChoice,pTChoice,primeStrength,pOSentence,responseSentence,response_rt,correctPChoices,primeType,Answer.time_in_minutes,pTSymbols,responseSymbols,trial_type,goodPTChoice,correctPTChoice,primeTShuffle,pTwrongAnswer,slide_number,pOSymbols,block_rt,goodPOChoice,audio,Answer.condition,slide_type,btwncondition,pOwrongAnswer,responseChoice,response,pTSentence,image,primeOShuffle,workerid,pOChoice
,,,,,,,,10.9432,,,,,,,,1,,,,,undefined,bot_check,,,,"[0, 'Mary']",,Mary,,0,
True,0,0,There are four diamonds.,There are four triangles.,3140,True,1,10.9432,"[6, 7, 3]","[9, 7, 8]",response,0,True,"[1, 0]","[0, 0, 0]",,"[0, 6, 3]",7557,1,,undefined,,exh-clausal,"[0, 0, 0]",1,,There are four stars.,,"[0, 1]",0,1
True,0,0,There are four stars.,There are four stars.,1858,True,1,10.9432,"[3, 7, 5]","[6, 9, 1]",filler,0,True,"[1, 0]","[0, 0, 0]",,"[6, 4, 7]",6238,1,,undefined,,exh-clausal,"[0, 0, 0]",1,,There are four spades.,,"[0, 1]",0,1
True,1,0,There are four notes.,There are four clubs.,2422,True,1,10.9432,"[8, 7, 1]","[1, 9, 3]",response,1,True,"[0, 1]","[0, 0, 0]",,"[8, 2, 6]",6172,0,,undefined,,exh-clausal,"[0, 0, 0]",1,,There are four notes.,,"[1, 0]",0,0
True,0,3,6 + 5 = ?,Some of the symbols are diamonds.,3808,True,0,10.9432,"[14, 7, 7]","[0, 5, 6]",response,0,True,"[1, 0]","[0, 0, 0]",,"[11, 6, 5]",7665,1,,undefined,,exh-clausal,"[1, 0, 0]",1,,7 + 7 = ?,,"[0, 1]",0,1
True,0,3,0 + 6 = ?,Some of the symbols are clubs.,2258,True,0,10.9432,"[11, 9, 2]","[1, 6, 8]",filler,0,True,"[1, 0]","[5, 0, 0]",,"[6, 0, 6]",5456,1,,undefined,,exh-clausal,"[1, 0, 0]",1,,9 + 2 = ?,,"[0, 1]",0,1
True,0,0,There is a circle.,There is a heart.,1774,True,2,10.9432,"[2, 0, 4]","[4, 1, 8]",filler,0,True,"[1, 0]","[0, 0, 0]",,"[7, 0, 9]",5079,0,,undefined,,exh-clausal,"[0, 0, 0]",1,,There is a tick.,,"[1, 0]",0,0
True,0,1,There is a heart.,There is a square.,1302,True,2,10.9432,"[4, 2, 9]","[5, 3, 0]",response,0,True,"[1, 0]","[0, 0, 0]",,"[4, 2, 0]",5361,1,,undefined,,exh-clausal,"[0, 0, 0]",0,,There is a heart.,,"[0, 1]",0,1
True,0,3,9 + 3 = ?,There is a spade.,2117,False,2,10.9432,"[10, 2, 8]","[3, 0, 8]",response,1,False,"[0, 1]","[1, 0, 0]",,"[12, 9, 3]",6296,1,,undefined,,exh-clausal,"[1, 0, 0]",0,,2 + 8 = ?,,"[0, 1]",0,1
True,0,2,"There is a heart, but there is nothing besides a heart.",There is a spade.,3293,True,2,10.9432,"[2, 8, 1]","[3, 9, 8]",response,0,True,"[1, 0]","[0, 0, 0]",,"[4, 3, 0]",18433,0,,undefined,,exh-clausal,"[0, 0, 0]",0,,"There is a tick, but there is nothing besides a tick.",,"[1, 0]",0,0
True,1,2,"There are four triangles, but there are no more than four triangles.",There are four spades.,1877,True,1,10.9432,"[7, 6, 1]","[3, 4, 9]",response,1,True,"[0, 1]","[0, 0, 0]",,"[9, 1, 6]",6172,0,,undefined,,exh-clausal,"[0, 0, 0]",1,,"There are four circles, but there are no more than four circles.",,"[1, 0]",0,0
True,0,1,There is a square.,There is a triangle.,2734,True,2,10.9432,"[1, 3, 0]","[9, 0, 3]",response,0,True,"[1, 0]","[0, 0, 0]",,"[5, 2, 3]",5766,1,,undefined,,exh-clausal,"[0, 0, 0]",1,,There is a club.,,"[0, 1]",0,1
False,1,3,1 + 3 = ?,Some of the symbols are ticks.,1810,False,0,10.9432,"[8, 5, 3]","[2, 1, 4]",filler,1,True,"[0, 1]","[1, 0, 0]",,"[4, 1, 3]",5320,1,,undefined,,exh-clausal,"[2, 0, 0]",1,,5 + 3 = ?,,"[0, 1]",0,0
True,0,2,"There are four squares, but there are no more than four squares.",There are four ticks.,1946,True,1,10.9432,"[4, 6, 7]","[2, 9, 1]",filler,0,True,"[1, 0]","[0, 0, 0]",,"[5, 0, 3]",6470,0,,undefined,,exh-clausal,"[0, 0, 0]",1,,"There are four hearts, but there are no more than four hearts.",,"[1, 0]",0,0
True,1,3,7 + 2 = ?,There are four triangles.,1875,False,1,10.9432,"[10, 3, 7]","[9, 2, 0]",response,0,False,"[1, 0]","[2, 0, 0]",,"[9, 7, 2]",7453,0,,undefined,,exh-clausal,"[4, 0, 0]",1,,3 + 7 = ?,,"[1, 0]",0,0
True,1,1,Some of the symbols are hearts.,Some of the symbols are clubs.,3319,True,0,10.9432,"[7, 6, 8]","[1, 0, 3]",response,1,True,"[0, 1]","[0, 0, 0]",,"[4, 7, 0]",8112,1,,undefined,,exh-clausal,"[0, 0, 0]",1,,Some of the symbols are circles.,,"[0, 1]",0,1
True,1,0,Some of the symbols are triangles.,Some of the symbols are hearts.,2265,True,0,10.9432,"[4, 3, 5]","[4, 2, 7]",response,1,True,"[0, 1]","[0, 0, 0]",,"[9, 1, 2]",7660,1,,undefined,,exh-clausal,"[0, 0, 0]",1,,Some of the symbols are hearts.,,"[0, 1]",0,1
True,0,1,Some of the symbols are stars.,Some of the symbols are ticks.,2039,True,0,10.9432,"[5, 3, 9]","[2, 4, 1]",filler,0,True,"[1, 0]","[0, 0, 0]",,"[6, 1, 4]",5790,0,,undefined,,exh-clausal,"[0, 0, 0]",1,,Some of the symbols are squares.,,"[1, 0]",0,0
True,1,0,Some of the symbols are squares.,Some of the symbols are ticks.,1920,True,0,10.9432,"[4, 2, 5]","[2, 4, 5]",response,1,True,"[0, 1]","[0, 0, 0]",,"[5, 3, 8]",8390,0,,undefined,,exh-clausal,"[0, 0, 0]",1,,Some of the symbols are hearts.,,"[1, 0]",0,0
True,1,3,6 + 0 = ?,There is a triangle.,2222,True,2,10.9432,"[5, 5, 0]","[9, 2, 1]",filler,1,True,"[0, 1]","[8, 0, 0]",,"[6, 6, 0]",10670,0,,undefined,,exh-clausal,"[5, 0, 0]",1,,5 + 0 = ?,,"[1, 0]",0,0
True,1,1,There are four diamonds.,There are four diamonds.,1971,True,1,10.9432,"[9, 6, 7]","[0, 1, 7]",filler,1,True,"[0, 1]","[0, 0, 0]",,"[0, 1, 3]",5400,0,,undefined,,exh-clausal,"[0, 0, 0]",1,,There are four triangles.,,"[1, 0]",0,0
True,1,2,"There are four ticks, but there are no more than four ticks.",There are four circles.,2028,True,1,10.9432,"[2, 9, 7]","[7, 1, 3]",response,1,True,"[0, 1]","[0, 0, 0]",,"[2, 5, 4]",5569,0,,undefined,,exh-clausal,"[0, 0, 0]",1,,"There are four ticks, but there are no more than four ticks.",,"[1, 0]",0,0
True,0,2,"Some of the symbols are triangles, but not all of them are triangles.",Some of the symbols are stars.,1937,True,0,10.9432,"[6, 4, 3]","[6, 1, 4]",response,0,True,"[1, 0]","[0, 0, 0]",,"[9, 6, 4]",7324,1,,undefined,,exh-clausal,"[0, 0, 0]",1,,"Some of the symbols are stars, but not all of them are stars.",,"[0, 1]",0,1
True,0,1,There are four clubs.,There are four notes.,1790,True,1,10.9432,"[3, 6, 2]","[8, 2, 0]",response,0,True,"[1, 0]","[0, 0, 0]",,"[1, 8, 9]",5478,1,,undefined,,exh-clausal,"[0, 0, 0]",1,,There are four spades.,,"[0, 1]",0,1
True,0,2,"There are four notes, but there are no more than four notes.",There are four clubs.,1657,True,1,10.9432,"[5, 6, 3]","[1, 3, 5]",filler,0,True,"[1, 0]","[0, 0, 0]",,"[8, 5, 7]",5197,1,,undefined,,exh-clausal,"[0, 0, 0]",1,,"There are four squares, but there are no more than four squares.",,"[0, 1]",0,1
True,0,0,Some of the symbols are stars.,Some of the symbols are circles.,2165,True,0,10.9432,"[5, 2, 8]","[7, 5, 8]",filler,0,True,"[1, 0]","[0, 0, 0]",,"[6, 8, 7]",12819,1,,undefined,,exh-clausal,"[0, 0, 0]",1,,Some of the symbols are squares.,,"[0, 1]",0,1
True,0,1,Some of the symbols are triangles.,Some of the symbols are circles.,2077,True,0,10.9432,"[6, 0, 9]","[7, 5, 3]",response,0,True,"[1, 0]","[0, 0, 0]",,"[9, 1, 7]",6271,0,,undefined,,exh-clausal,"[0, 0, 0]",1,,Some of the symbols are stars.,,"[1, 0]",0,0
False,1,3,9 + 1 = ?,There is a heart.,1983,False,2,10.9432,"[4, 1, 3]","[4, 8, 9]",filler,1,True,"[0, 1]","[5, 0, 0]",,"[10, 9, 1]",5009,1,,undefined,,exh-clausal,"[1, 0, 0]",1,,1 + 3 = ?,,"[0, 1]",0,0
True,0,1,There is a heart.,There is a triangle.,6964,True,2,10.9432,"[7, 2, 3]","[9, 4, 6]",response,0,True,"[1, 0]","[0, 0, 0]",,"[4, 5, 0]",10240,0,,undefined,,exh-clausal,"[0, 0, 0]",0,,There is a circle.,,"[1, 0]",0,0
True,1,2,"There are four diamonds, but there are no more than four diamonds.",There are four stars.,1945,True,1,10.9432,"[8, 0, 9]","[6, 2, 9]",filler,1,True,"[0, 1]","[0, 0, 0]",,"[0, 6, 8]",5156,0,,undefined,,exh-clausal,"[0, 0, 0]",1,,"There are four notes, but there are no more than four notes.",,"[1, 0]",0,0
True,1,3,1 + 3 = ?,There are four ticks.,1707,True,1,10.9432,"[14, 6, 8]","[2, 9, 7]",filler,1,True,"[0, 1]","[5, 0, 0]",,"[4, 1, 3]",6177,0,,undefined,,exh-clausal,"[2, 0, 0]",1,,6 + 8 = ?,,"[1, 0]",0,0
True,0,1,There are four triangles.,There are four diamonds.,1487,True,1,10.9432,"[4, 2, 7]","[0, 9, 7]",filler,0,True,"[1, 0]","[0, 0, 0]",,"[9, 2, 5]",4848,1,,undefined,,exh-clausal,"[0, 0, 0]",1,,There are four hearts.,,"[0, 1]",0,1
True,1,2,"There is a circle, but there is nothing besides a circle.",There is a triangle.,1589,True,2,10.9432,"[6, 7, 8]","[9, 1, 6]",filler,1,True,"[0, 1]","[0, 0, 0]",,"[7, 5, 1]",5039,0,,undefined,,exh-clausal,"[0, 0, 0]",1,,"There is a star, but there is nothing besides a star.",,"[1, 0]",0,0
False,1,3,7 + 7 = ?,There is a club.,2912,False,2,10.9432,"[7, 7, 0]","[1, 0, 6]",response,1,True,"[0, 1]","[8, 0, 0]",,"[14, 7, 7]",5969,1,,undefined,,exh-clausal,"[3, 0, 0]",0,,7 + 0 = ?,,"[0, 1]",0,0
True,1,0,Some of the symbols are hearts.,Some of the symbols are stars.,2490,True,0,10.9432,"[6, 1, 4]","[6, 5, 4]",filler,1,True,"[0, 1]","[0, 0, 0]",,"[4, 0, 7]",6713,0,,undefined,,exh-clausal,"[0, 0, 0]",1,,Some of the symbols are stars.,,"[1, 0]",0,0
True,1,1,There is a heart.,There is a circle.,1809,True,2,10.9432,"[8, 6, 9]","[7, 1, 5]",filler,1,True,"[0, 1]","[0, 0, 0]",,"[4, 8, 2]",4913,1,,undefined,,exh-clausal,"[0, 0, 0]",1,,There is a note.,,"[0, 1]",0,1
True,0,3,0 + 9 = ?,There are four circles.,1564,False,1,10.9432,"[10, 9, 1]","[7, 6, 1]",response,1,False,"[0, 1]","[3, 0, 0]",,"[9, 0, 9]",4567,1,,undefined,,exh-clausal,"[8, 0, 0]",1,,9 + 1 = ?,,"[0, 1]",0,1
True,1,0,There is a star.,There is a triangle.,1667,True,2,10.9432,"[3, 8, 5]","[9, 5, 7]",filler,1,True,"[0, 1]","[0, 0, 0]",,"[6, 5, 3]",5282,1,,undefined,,exh-clausal,"[0, 0, 0]",1,,There is a spade.,,"[0, 1]",0,1
True,1,1,Some of the symbols are clubs.,Some of the symbols are circles.,1737,True,0,10.9432,"[9, 0, 1]","[7, 8, 4]",response,1,True,"[0, 1]","[0, 0, 0]",,"[1, 7, 5]",7432,0,,undefined,,exh-clausal,"[0, 0, 0]",1,,Some of the symbols are triangles.,,"[1, 0]",0,0
True,0,2,"Some of the symbols are circles, but not all of them are circles.",Some of the symbols are diamonds.,1758,True,0,10.9432,"[8, 1, 2]","[0, 7, 2]",response,0,True,"[1, 0]","[0, 0, 0]",,"[7, 6, 3]",5586,0,,undefined,,exh-clausal,"[0, 0, 0]",1,,"Some of the symbols are notes, but not all of them are notes.",,"[1, 0]",0,0
True,1,1,There are four clubs.,There are four triangles.,1477,True,1,10.9432,"[2, 7, 9]","[9, 8, 1]",filler,1,True,"[0, 1]","[0, 0, 0]",,"[1, 3, 7]",4431,0,,undefined,,exh-clausal,"[0, 0, 0]",1,,There are four ticks.,,"[1, 0]",0,0
True,0,1,There is a diamond.,There is a heart.,2252,True,2,10.9432,"[2, 7, 8]","[4, 9, 5]",response,0,True,"[1, 0]","[0, 0, 0]",,"[0, 9, 7]",5168,1,,undefined,,exh-clausal,"[0, 0, 0]",1,,There is a tick.,,"[0, 1]",0,1
True,0,3,4 + 8 = ?,Some of the symbols are squares.,2210,False,0,10.9432,"[7, 7, 0]","[5, 0, 1]",response,1,False,"[0, 1]","[3, 0, 0]",,"[12, 4, 8]",5718,1,,undefined,,exh-clausal,"[7, 0, 0]",1,,7 + 0 = ?,,"[0, 1]",0,1
True,0,0,Some of the symbols are circles.,Some of the symbols are spades.,1697,True,0,10.9432,"[1, 0, 7]","[3, 4, 0]",filler,0,True,"[1, 0]","[0, 0, 0]",,"[7, 8, 2]",7986,1,,undefined,,exh-clausal,"[0, 0, 0]",1,,Some of the symbols are clubs.,,"[0, 1]",0,1
True,0,2,"There are four stars, but there are no more than four stars.",There are four notes.,1656,True,1,10.9432,"[5, 6, 3]","[8, 4, 5]",response,0,True,"[1, 0]","[0, 0, 0]",,"[6, 3, 5]",5320,0,,undefined,,exh-clausal,"[0, 0, 0]",1,,"There are four squares, but there are no more than four squares.",,"[1, 0]",0,0
True,1,3,9 + 3 = ?,There are four spades.,1797,True,1,10.9432,"[4, 1, 3]","[3, 2, 0]",filler,1,True,"[0, 1]","[6, 0, 0]",,"[12, 9, 3]",4619,0,,undefined,,exh-clausal,"[1, 0, 0]",1,,1 + 3 = ?,,"[1, 0]",0,0
True,1,0,There are four clubs.,There are four triangles.,1614,True,1,10.9432,"[9, 5, 4]","[9, 6, 4]",response,1,True,"[0, 1]","[0, 0, 0]",,"[1, 4, 9]",5440,1,,undefined,,exh-clausal,"[0, 0, 0]",1,,There are four triangles.,,"[0, 1]",0,1
False,0,3,0 + 7 = ?,There are four stars.,1340,False,1,10.9432,"[10, 9, 1]","[6, 9, 8]",response,0,True,"[1, 0]","[5, 0, 0]",,"[7, 0, 7]",3885,0,,undefined,,exh-clausal,"[0, 0, 0]",1,,9 + 1 = ?,,"[1, 0]",0,1
True,0,1,There are four triangles.,There are four spades.,1814,True,1,10.9432,"[9, 8, 4]","[3, 2, 4]",response,0,True,"[1, 0]","[0, 0, 0]",,"[9, 2, 7]",5544,1,,undefined,,exh-clausal,"[0, 0, 0]",1,,There are four triangles.,,"[0, 1]",0,1
True,1,2,"There is a club, but there is nothing besides a club.",There is a star.,2000,True,2,10.9432,"[3, 1, 5]","[6, 4, 2]",response,1,True,"[0, 1]","[0, 0, 0]",,"[1, 0, 2]",5397,1,,undefined,,exh-clausal,"[0, 0, 0]",1,,"There is a spade, but there is nothing besides a spade.",,"[0, 1]",0,1
True,1,1,There is a note.,There is a note.,1958,True,2,10.9432,"[7, 4, 0]","[8, 9, 7]",filler,1,True,"[0, 1]","[0, 0, 0]",,"[8, 5, 7]",5084,0,,undefined,,exh-clausal,"[0, 0, 0]",1,,There is a circle.,,"[1, 0]",0,0
True,0,3,4 + 2 = ?,There is a diamond.,1672,False,2,10.9432,"[7, 1, 6]","[0, 6, 1]",filler,1,False,"[0, 1]","[2, 0, 0]",,"[6, 4, 2]",4417,1,,undefined,,exh-clausal,"[0, 0, 0]",1,,1 + 6 = ?,,"[0, 1]",0,1
True,1,2,"There is a note, but there is nothing besides a note.",There is a star.,2124,True,2,10.9432,"[5, 6, 3]","[6, 4, 5]",response,1,True,"[0, 1]","[0, 0, 0]",,"[8, 4, 0]",5154,1,,undefined,,exh-clausal,"[0, 0, 0]",1,,"There is a square, but there is nothing besides a square.",,"[0, 1]",0,1
True,0,1,Some of the symbols are hearts.,Some of the symbols are diamonds.,1868,True,0,10.9432,"[0, 6, 4]","[0, 5, 4]",response,0,True,"[1, 0]","[0, 0, 0]",,"[4, 2, 7]",5755,1,,undefined,,exh-clausal,"[0, 0, 0]",1,,Some of the symbols are diamonds.,,"[0, 1]",0,1
True,0,0,Some of the symbols are notes.,Some of the symbols are spades.,1790,True,0,10.9432,"[1, 0, 8]","[3, 7, 2]",response,0,True,"[1, 0]","[0, 0, 0]",,"[8, 7, 5]",6496,1,,undefined,,exh-clausal,"[0, 0, 0]",1,,Some of the symbols are clubs.,,"[0, 1]",0,1
True,0,1,There are four triangles.,There are four clubs.,1479,True,1,10.9432,"[9, 0, 6]","[1, 5, 0]",response,0,True,"[1, 0]","[0, 0, 0]",,"[9, 5, 3]",5110,0,,undefined,,exh-clausal,"[0, 0, 0]",1,,There are four triangles.,,"[1, 0]",0,0
True,0,2,"Some of the symbols are squares, but not all of them are squares.",Some of the symbols are triangles.,1892,True,0,10.9432,"[6, 1, 2]","[9, 1, 3]",response,0,True,"[1, 0]","[0, 0, 0]",,"[5, 4, 7]",5789,1,,undefined,,exh-clausal,"[0, 0, 0]",1,,"Some of the symbols are stars, but not all of them are stars.",,"[0, 1]",0,1
True,1,1,There are four ticks.,There are four hearts.,1549,True,1,10.9432,"[3, 0, 7]","[4, 9, 0]",filler,1,True,"[0, 1]","[0, 0, 0]",,"[2, 7, 9]",4509,1,,undefined,,exh-clausal,"[0, 0, 0]",1,,There are four spades.,,"[0, 1]",0,1
True,1,1,Some of the symbols are squares.,Some of the symbols are notes.,1678,True,0,10.9432,"[2, 6, 4]","[8, 7, 4]",filler,1,True,"[0, 1]","[0, 0, 0]",,"[5, 6, 9]",5196,1,,undefined,,exh-clausal,"[0, 0, 0]",1,,Some of the symbols are ticks.,,"[0, 1]",0,1
True,0,2,"Some of the symbols are stars, but not all of them are stars.",Some of the symbols are stars.,2069,True,0,10.9432,"[7, 9, 3]","[6, 2, 7]",filler,0,True,"[1, 0]","[0, 0, 0]",,"[6, 3, 5]",6528,0,,undefined,,exh-clausal,"[0, 0, 0]",1,,"Some of the symbols are circles, but not all of them are circles.",,"[1, 0]",0,0
True,0,2,"There is a circle, but there is nothing besides a circle.",There is a note.,1613,True,2,10.9432,"[1, 8, 3]","[8, 1, 5]",filler,0,True,"[1, 0]","[0, 0, 0]",,"[7, 4, 5]",5002,0,,undefined,,exh-clausal,"[0, 0, 0]",1,,"There is a club, but there is nothing besides a club.",,"[1, 0]",0,0
True,0,2,"There is a diamond, but there is nothing besides a diamond.",There is a circle.,2390,True,2,10.9432,"[7, 8, 5]","[7, 9, 5]",filler,0,True,"[1, 0]","[0, 0, 0]",,"[0, 5, 7]",6714,1,,undefined,,exh-clausal,"[0, 0, 0]",1,,"There is a circle, but there is nothing besides a circle.",,"[0, 1]",0,1
True,0,0,Some of the symbols are diamonds.,Some of the symbols are triangles.,1905,True,0,10.9432,"[0, 4, 5]","[9, 3, 1]",filler,0,True,"[1, 0]","[0, 0, 0]",,"[0, 8, 1]",6239,1,,undefined,,exh-clausal,"[0, 0, 0]",1,,Some of the symbols are diamonds.,,"[0, 1]",0,1
True,0,0,There are four circles.,There are four hearts.,1551,True,1,10.9432,"[3, 9, 0]","[4, 2, 9]",filler,0,True,"[1, 0]","[0, 0, 0]",,"[7, 6, 1]",5873,0,,undefined,,exh-clausal,"[0, 0, 0]",1,,There are four spades.,,"[1, 0]",0,0
True,1,3,2 + 1 = ?,There is a circle.,1907,False,2,10.9432,"[1, 1, 0]","[7, 5, 8]",response,0,False,"[1, 0]","[8, 0, 0]",,"[3, 2, 1]",4782,0,,undefined,,exh-clausal,"[4, 0, 0]",1,,1 + 0 = ?,,"[1, 0]",0,0
True,0,0,Some of the symbols are notes.,Some of the symbols are ticks.,1564,True,0,10.9432,"[3, 2, 7]","[2, 5, 1]",response,0,True,"[1, 0]","[0, 0, 0]",,"[8, 3, 7]",5367,1,,undefined,,exh-clausal,"[0, 0, 0]",1,,Some of the symbols are spades.,,"[0, 1]",0,1
True,1,0,There is a triangle.,There is a square.,2257,True,2,10.9432,"[8, 6, 7]","[5, 2, 0]",response,1,True,"[0, 1]","[0, 0, 0]",,"[9, 4, 0]",6588,1,,undefined,,exh-clausal,"[0, 0, 0]",0,,There is a note.,,"[0, 1]",0,1
True,1,3,1 + 1 = ?,There is a triangle.,2958,True,2,10.9432,"[4, 4, 0]","[9, 4, 8]",response,1,True,"[0, 1]","[0, 0, 0]",,"[2, 1, 1]",5856,0,,undefined,,exh-clausal,"[6, 0, 0]",1,,4 + 0 = ?,,"[1, 0]",0,0
False,0,3,4 + 6 = ?,Some of the symbols are squares.,1935,False,0,10.9432,"[9, 3, 6]","[5, 1, 8]",filler,0,True,"[1, 0]","[7, 0, 0]",,"[10, 4, 6]",6020,0,,undefined,,exh-clausal,"[2, 0, 0]",1,,3 + 6 = ?,,"[1, 0]",0,1
True,1,3,1 + 1 = ?,Some of the symbols are circles.,2880,False,0,10.9432,"[11, 4, 7]","[7, 3, 2]",response,0,False,"[1, 0]","[4, 0, 0]",,"[2, 1, 1]",6778,0,,undefined,,exh-clausal,"[6, 0, 0]",1,,4 + 7 = ?,,"[1, 0]",0,0
True,0,2,"There are four triangles, but there are no more than four triangles.",There are four ticks.,1521,True,1,10.9432,"[1, 9, 3]","[2, 5, 6]",filler,0,True,"[1, 0]","[0, 0, 0]",,"[9, 2, 0]",6362,0,,undefined,,exh-clausal,"[0, 0, 0]",1,,"There are four clubs, but there are no more than four clubs.",,"[1, 0]",0,0
True,1,3,1 + 2 = ?,There are four ticks.,2002,True,1,10.9432,"[14, 7, 7]","[2, 1, 7]",response,1,True,"[0, 1]","[6, 0, 0]",,"[3, 1, 2]",5407,0,,undefined,,exh-clausal,"[5, 0, 0]",1,,7 + 7 = ?,,"[1, 0]",0,0
True,1,2,"Some of the symbols are spades, but not all of them are spades.",Some of the symbols are hearts.,1791,True,0,10.9432,"[5, 9, 3]","[4, 6, 1]",filler,1,True,"[0, 1]","[0, 0, 0]",,"[3, 2, 7]",5227,1,,undefined,,exh-clausal,"[0, 0, 0]",1,,"Some of the symbols are squares, but not all of them are squares.",,"[0, 1]",0,1
True,1,2,"There are four stars, but there are no more than four stars.",There are four squares.,2614,True,1,10.9432,"[7, 1, 0]","[5, 0, 9]",response,1,True,"[0, 1]","[0, 0, 0]",,"[6, 2, 1]",6697,1,,undefined,,exh-clausal,"[0, 0, 0]",1,,"There are four circles, but there are no more than four circles.",,"[0, 1]",0,1
True,0,0,There is a star.,There is a square.,1548,True,2,10.9432,"[8, 4, 6]","[5, 8, 3]",filler,0,True,"[1, 0]","[0, 0, 0]",,"[6, 8, 0]",5031,1,,undefined,,exh-clausal,"[0, 0, 0]",1,,There is a note.,,"[0, 1]",0,1
True,0,0,There are four clubs.,There are four triangles.,1478,True,1,10.9432,"[9, 6, 4]","[9, 4, 5]",filler,0,True,"[1, 0]","[0, 0, 0]",,"[1, 4, 8]",5417,1,,undefined,,exh-clausal,"[0, 0, 0]",1,,There are four triangles.,,"[0, 1]",0,1
True,1,2,"There is a square, but there is nothing besides a square.",There is a circle.,1626,True,2,10.9432,"[6, 0, 7]","[7, 4, 3]",filler,1,True,"[0, 1]","[0, 0, 0]",,"[5, 6, 7]",7054,1,,undefined,,exh-clausal,"[0, 0, 0]",1,,"There is a star, but there is nothing besides a star.",,"[0, 1]",0,1
True,1,0,There is a heart.,There is a note.,1860,True,2,10.9432,"[8, 9, 2]","[8, 4, 2]",response,1,True,"[0, 1]","[0, 0, 0]",,"[4, 6, 8]",5781,0,,undefined,,exh-clausal,"[0, 0, 0]",0,,There is a note.,,"[1, 0]",0,0
True,1,0,There are four squares.,There are four clubs.,3344,True,1,10.9432,"[7, 6, 4]","[1, 3, 4]",response,1,True,"[0, 1]","[0, 0, 0]",,"[5, 0, 9]",7492,0,,undefined,,exh-clausal,"[0, 0, 0]",1,,There are four circles.,,"[1, 0]",0,0
True,1,2,"Some of the symbols are ticks, but not all of them are ticks.",Some of the symbols are notes.,2485,True,0,10.9432,"[0, 6, 7]","[8, 1, 4]",response,1,True,"[0, 1]","[0, 0, 0]",,"[2, 1, 3]",6170,1,,undefined,,exh-clausal,"[0, 0, 0]",1,,"Some of the symbols are diamonds, but not all of them are diamonds.",,"[0, 1]",0,1
True,1,1,There is a spade.,There is a note.,2125,True,2,10.9432,"[1, 5, 9]","[8, 7, 5]",filler,1,True,"[0, 1]","[0, 0, 0]",,"[3, 8, 4]",4976,0,,undefined,,exh-clausal,"[0, 0, 0]",1,,There is a club.,,"[1, 0]",0,0
True,1,3,6 + 4 = ?,Some of the symbols are hearts.,2070,False,0,10.9432,"[8, 8, 0]","[4, 3, 8]",response,0,False,"[1, 0]","[0, 0, 0]",,"[10, 6, 4]",5079,0,,undefined,,exh-clausal,"[8, 0, 0]",1,,8 + 0 = ?,,"[1, 0]",0,0
True,0,0,There is a diamond.,There is a spade.,1580,True,2,10.9432,"[5, 2, 7]","[3, 5, 9]",response,0,True,"[1, 0]","[0, 0, 0]",,"[0, 4, 5]",5219,0,,undefined,,exh-clausal,"[0, 0, 0]",0,,There is a square.,,"[1, 0]",0,0
True,0,2,"Some of the symbols are ticks, but not all of them are ticks.",Some of the symbols are stars.,1945,True,0,10.9432,"[8, 6, 7]","[6, 0, 5]",filler,0,True,"[1, 0]","[0, 0, 0]",,"[2, 6, 3]",5038,0,,undefined,,exh-clausal,"[0, 0, 0]",1,,"Some of the symbols are notes, but not all of them are notes.",,"[1, 0]",0,0
False,0,3,2 + 0 = ?,There are four stars.,2178,False,1,10.9432,"[8, 3, 5]","[6, 7, 9]",filler,0,True,"[1, 0]","[0, 0, 0]",,"[2, 2, 0]",4859,0,,undefined,,exh-clausal,"[4, 0, 0]",1,,3 + 5 = ?,,"[1, 0]",0,1
True,1,3,6 + 9 = ?,Some of the symbols are hearts.,1906,True,0,10.9432,"[17, 9, 8]","[4, 6, 5]",filler,1,True,"[0, 1]","[4, 0, 0]",,"[15, 6, 9]",5282,0,,undefined,,exh-clausal,"[7, 0, 0]",1,,9 + 8 = ?,,"[1, 0]",0,0
True,0,3,9 + 9 = ?,There are four triangles.,1432,False,1,10.9432,"[10, 1, 9]","[9, 6, 0]",filler,1,False,"[0, 1]","[1, 0, 0]",,"[18, 9, 9]",4353,1,,undefined,,exh-clausal,"[4, 0, 0]",1,,1 + 9 = ?,,"[0, 1]",0,1
True,1,3,4 + 7 = ?,There is a club.,2061,False,2,10.9432,"[4, 1, 3]","[1, 8, 3]",filler,0,False,"[1, 0]","[9, 0, 0]",,"[11, 4, 7]",4877,0,,undefined,,exh-clausal,"[9, 0, 0]",0,,1 + 3 = ?,,"[1, 0]",0,0
True,0,1,There is a triangle.,There is a spade.,1494,True,2,10.9432,"[6, 4, 1]","[3, 6, 7]",filler,0,True,"[1, 0]","[0, 0, 0]",,"[9, 0, 3]",4539,1,,undefined,,exh-clausal,"[0, 0, 0]",1,,There is a star.,,"[0, 1]",0,1
True,1,0,There is a circle.,There is a note.,1789,True,2,10.9432,"[3, 4, 7]","[8, 4, 6]",response,1,True,"[0, 1]","[0, 0, 0]",,"[7, 9, 8]",5212,0,,undefined,,exh-clausal,"[0, 0, 0]",0,,There is a spade.,,"[1, 0]",0,0
True,0,0,There is a diamond.,There is a star.,1729,True,2,10.9432,"[2, 9, 5]","[6, 0, 1]",filler,0,True,"[1, 0]","[0, 0, 0]",,"[0, 1, 6]",5087,1,,undefined,,exh-clausal,"[0, 0, 0]",1,,There is a tick.,,"[0, 1]",0,1
True,1,2,"Some of the symbols are diamonds, but not all of them are diamonds.",Some of the symbols are ticks.,1833,True,0,10.9432,"[9, 0, 3]","[2, 9, 7]",filler,1,True,"[0, 1]","[0, 0, 0]",,"[0, 6, 2]",5799,0,,undefined,,exh-clausal,"[0, 0, 0]",1,,"Some of the symbols are triangles, but not all of them are triangles.",,"[1, 0]",0,0
False,1,1,There are four triangles.,There are four hearts.,1649,False,1,10.9432,"[5, 7, 9]","[4, 9, 5]",response,1,True,"[0, 1]","[0, 0, 0]",,"[9, 6, 0]",4987,0,,undefined,,exh-clausal,"[0, 0, 0]",1,,There are four squares.,,"[1, 0]",0,1
True,1,1,Some of the symbols are diamonds.,Some of the symbols are triangles.,1976,True,0,10.9432,"[2, 1, 9]","[9, 0, 2]",filler,1,True,"[0, 1]","[0, 0, 0]",,"[0, 2, 8]",5903,1,,undefined,,exh-clausal,"[0, 0, 0]",1,,Some of the symbols are ticks.,,"[0, 1]",0,1
True,1,2,"There is a circle, but there is nothing besides a circle.",There is a club.,1713,True,2,10.9432,"[2, 6, 4]","[1, 5, 3]",response,1,True,"[0, 1]","[0, 0, 0]",,"[7, 2, 3]",5514,0,,undefined,,exh-clausal,"[0, 0, 0]",0,,"There is a tick, but there is nothing besides a tick.",,"[1, 0]",0,0
True,1,0,There are four stars.,There are four spades.,1822,True,1,10.9432,"[1, 5, 9]","[3, 4, 8]",filler,1,True,"[0, 1]","[0, 0, 0]",,"[6, 3, 9]",4409,1,,undefined,,exh-clausal,"[0, 0, 0]",1,,There are four clubs.,,"[0, 1]",0,1
True,0,1,Some of the symbols are notes.,Some of the symbols are diamonds.,1343,True,0,10.9432,"[8, 9, 6]","[0, 5, 9]",filler,0,True,"[1, 0]","[0, 0, 0]",,"[8, 0, 5]",4501,0,,undefined,,exh-clausal,"[0, 0, 0]",1,,Some of the symbols are notes.,,"[1, 0]",0,0
,,,,,,,,13.362266666666667,,,,,,,,1,,,,,undefined,bot_check,,,,"[0, 'Patricia']",,Patricia,,1,
True,1,2,"There are four notes, but there are no more than four notes.",There are four circles.,2542,True,1,13.362266666666667,"[8, 2, 7]","[7, 3, 1]",filler,1,True,"[0, 1]","[0, 0, 0]",,"[8, 9, 0]",15380,1,,undefined,,exh-clausal,"[0, 0, 0]",1,,"There are four notes, but there are no more than four notes.",,"[0, 1]",1,1
True,1,0,Some of the symbols are squares.,Some of the symbols are circles.,3394,True,0,13.362266666666667,"[1, 3, 8]","[7, 2, 8]",response,1,True,"[0, 1]","[0, 0, 0]",,"[5, 7, 0]",14549,1,,undefined,,exh-clausal,"[0, 0, 0]",0,,Some of the symbols are clubs.,,"[0, 1]",1,1
True,0,2,"Some of the symbols are squares, but not all of them are squares.",Some of the symbols are stars.,3877,True,0,13.362266666666667,"[3, 1, 0]","[6, 0, 5]",filler,0,True,"[1, 0]","[0, 0, 0]",,"[5, 6, 7]",14214,0,,undefined,,exh-clausal,"[0, 0, 0]",1,,"Some of the symbols are spades, but not all of them are spades.",,"[1, 0]",1,0
True,1,0,There is a tick.,There is a square.,2309,True,2,13.362266666666667,"[2, 6, 3]","[5, 0, 2]",response,1,True,"[0, 1]","[0, 0, 0]",,"[2, 9, 3]",8150,1,,undefined,,exh-clausal,"[0, 0, 0]",0,,There is a tick.,,"[0, 1]",1,1
True,1,1,Some of the symbols are notes.,Some of the symbols are diamonds.,3227,True,0,13.362266666666667,"[4, 3, 7]","[0, 4, 1]",response,1,True,"[0, 1]","[0, 0, 0]",,"[8, 2, 5]",11434,0,,undefined,,exh-clausal,"[0, 0, 0]",0,,Some of the symbols are hearts.,,"[1, 0]",1,0
True,0,3,7 + 5 = ?,There is a circle.,2576,False,2,13.362266666666667,"[5, 3, 2]","[7, 4, 0]",filler,1,False,"[0, 1]","[5, 0, 0]",,"[12, 7, 5]",10294,1,,undefined,,exh-clausal,"[7, 0, 0]",1,,3 + 2 = ?,,"[0, 1]",1,1
True,0,1,There are four diamonds.,There are four notes.,2443,True,1,13.362266666666667,"[4, 1, 5]","[8, 0, 3]",response,0,True,"[1, 0]","[0, 0, 0]",,"[0, 4, 1]",7131,0,,undefined,,exh-clausal,"[0, 0, 0]",1,,There are four hearts.,,"[1, 0]",1,0
True,0,3,8 + 7 = ?,There is a circle.,2070,True,2,13.362266666666667,"[11, 3, 8]","[7, 9, 5]",filler,0,True,"[1, 0]","[4, 0, 0]",,"[15, 8, 7]",7177,1,,undefined,,exh-clausal,"[0, 0, 0]",1,,3 + 8 = ?,,"[0, 1]",1,1
True,0,0,There are four circles.,There are four notes.,2666,True,1,13.362266666666667,"[9, 6, 0]","[8, 0, 7]",response,0,True,"[1, 0]","[0, 0, 0]",,"[7, 6, 4]",8219,0,,undefined,,exh-clausal,"[0, 0, 0]",1,,There are four triangles.,,"[1, 0]",1,0
True,1,0,Some of the symbols are hearts.,Some of the symbols are hearts.,2295,True,0,13.362266666666667,"[1, 2, 4]","[4, 0, 6]",response,1,True,"[0, 1]","[0, 0, 0]",,"[4, 1, 2]",8900,1,,undefined,,exh-clausal,"[0, 0, 0]",0,,Some of the symbols are clubs.,,"[0, 1]",1,1
True,0,0,Some of the symbols are notes.,Some of the symbols are clubs.,1889,True,0,13.362266666666667,"[6, 9, 2]","[1, 6, 9]",filler,0,True,"[1, 0]","[0, 0, 0]",,"[8, 6, 2]",6906,1,,undefined,,exh-clausal,"[0, 0, 0]",1,,Some of the symbols are stars.,,"[0, 1]",1,1
True,0,2,"There is a note, but there is nothing besides a note.",There is a diamond.,4535,True,2,13.362266666666667,"[7, 9, 6]","[0, 9, 3]",response,0,True,"[1, 0]","[0, 0, 0]",,"[8, 6, 2]",13659,1,,undefined,,exh-clausal,"[0, 0, 0]",0,,"There is a circle, but there is nothing besides a circle.",,"[0, 1]",1,1
True,0,1,There is a heart.,There is a triangle.,3044,True,2,13.362266666666667,"[7, 3, 2]","[9, 6, 4]",response,0,True,"[1, 0]","[0, 0, 0]",,"[4, 2, 5]",6856,0,,undefined,,exh-clausal,"[0, 0, 0]",0,,There is a circle.,,"[1, 0]",1,0
True,0,0,There are four hearts.,There are four hearts.,1767,True,1,13.362266666666667,"[9, 6, 8]","[4, 8, 6]",filler,0,True,"[1, 0]","[0, 0, 0]",,"[4, 8, 2]",5916,1,,undefined,,exh-clausal,"[0, 0, 0]",1,,There are four triangles.,,"[0, 1]",1,1
True,0,2,"Some of the symbols are stars, but not all of them are stars.",Some of the symbols are diamonds.,5546,True,0,13.362266666666667,"[9, 3, 6]","[0, 2, 5]",response,0,True,"[1, 0]","[0, 0, 0]",,"[6, 2, 5]",10742,0,,undefined,,exh-clausal,"[0, 0, 0]",0,,"Some of the symbols are triangles, but not all of them are triangles.",,"[1, 0]",1,0
True,1,0,There is a spade.,There is a note.,1565,True,2,13.362266666666667,"[1, 6, 9]","[8, 4, 3]",response,1,True,"[0, 1]","[0, 0, 0]",,"[3, 1, 8]",7713,0,,undefined,,exh-clausal,"[0, 0, 0]",0,,There is a club.,,"[1, 0]",1,0
False,0,3,6 + 2 = ?,There are four stars.,1779,False,1,13.362266666666667,"[1, 1, 0]","[6, 5, 7]",filler,0,True,"[1, 0]","[8, 0, 0]",,"[8, 6, 2]",6370,0,,undefined,,exh-clausal,"[1, 0, 0]",1,,1 + 0 = ?,,"[1, 0]",1,1
True,1,3,0 + 5 = ?,There are four stars.,1635,True,1,13.362266666666667,"[13, 8, 5]","[6, 5, 8]",filler,1,True,"[0, 1]","[4, 0, 0]",,"[5, 0, 5]",8119,0,,undefined,,exh-clausal,"[5, 0, 0]",1,,8 + 5 = ?,,"[1, 0]",1,0
False,0,3,2 + 3 = ?,There is a circle.,1939,False,2,13.362266666666667,"[11, 7, 4]","[7, 5, 2]",filler,0,True,"[1, 0]","[6, 0, 0]",,"[5, 2, 3]",8416,0,,undefined,,exh-clausal,"[2, 0, 0]",1,,7 + 4 = ?,,"[1, 0]",1,1
False,1,3,6 + 9 = ?,There is a heart.,2823,False,2,13.362266666666667,"[13, 5, 8]","[4, 1, 0]",response,1,True,"[0, 1]","[1, 0, 0]",,"[15, 6, 9]",8361,1,,undefined,,exh-clausal,"[8, 0, 0]",0,,5 + 8 = ?,,"[0, 1]",1,0
True,1,0,There are four spades.,There are four clubs.,1793,True,1,13.362266666666667,"[4, 9, 7]","[1, 6, 5]",response,1,True,"[0, 1]","[0, 0, 0]",,"[3, 7, 1]",9610,0,,undefined,,exh-clausal,"[0, 0, 0]",0,,There are four hearts.,,"[1, 0]",1,0
True,1,0,Some of the symbols are squares.,Some of the symbols are clubs.,2159,True,0,13.362266666666667,"[8, 0, 3]","[1, 6, 5]",response,1,True,"[0, 1]","[0, 0, 0]",,"[5, 1, 4]",7523,1,,undefined,,exh-clausal,"[0, 0, 0]",0,,Some of the symbols are notes.,,"[0, 1]",1,1
True,0,0,There are four hearts.,There are four stars.,2592,True,1,13.362266666666667,"[6, 5, 2]","[6, 4, 5]",filler,0,True,"[1, 0]","[0, 0, 0]",,"[4, 9, 5]",6606,0,,undefined,,exh-clausal,"[0, 0, 0]",1,,There are four stars.,,"[1, 0]",1,0
True,0,1,There are four diamonds.,There are four clubs.,4379,True,1,13.362266666666667,"[8, 6, 1]","[1, 4, 2]",response,0,True,"[1, 0]","[0, 0, 0]",,"[0, 9, 1]",8199,0,,undefined,,exh-clausal,"[0, 0, 0]",0,,There are four notes.,,"[1, 0]",1,0
True,1,3,9 + 4 = ?,There is a triangle.,1822,False,2,13.362266666666667,"[13, 4, 9]","[9, 5, 3]",filler,0,False,"[1, 0]","[5, 0, 0]",,"[13, 9, 4]",6218,0,,undefined,,exh-clausal,"[6, 0, 0]",1,,4 + 9 = ?,,"[1, 0]",1,0
True,1,2,"There is a triangle, but there is nothing besides a triangle.",There is a club.,3147,True,2,13.362266666666667,"[9, 8, 0]","[1, 9, 2]",filler,1,True,"[0, 1]","[0, 0, 0]",,"[9, 5, 7]",7525,0,,undefined,,exh-clausal,"[0, 0, 0]",1,,"There is a triangle, but there is nothing besides a triangle.",,"[1, 0]",1,0
True,0,0,There is a heart.,There is a heart.,1995,True,2,13.362266666666667,"[6, 9, 8]","[4, 8, 3]",filler,0,True,"[1, 0]","[0, 0, 0]",,"[4, 2, 7]",5959,0,,undefined,,exh-clausal,"[0, 0, 0]",1,,There is a star.,,"[1, 0]",1,0
True,1,3,4 + 3 = ?,Some of the symbols are hearts.,2472,False,0,13.362266666666667,"[1, 0, 1]","[4, 7, 6]",filler,0,False,"[1, 0]","[2, 0, 0]",,"[7, 4, 3]",7629,0,,undefined,,exh-clausal,"[3, 0, 0]",1,,0 + 1 = ?,,"[1, 0]",1,0
True,1,2,"Some of the symbols are stars, but not all of them are stars.",Some of the symbols are stars.,2003,True,0,13.362266666666667,"[9, 5, 2]","[6, 4, 2]",filler,1,True,"[0, 1]","[0, 0, 0]",,"[6, 9, 3]",7386,1,,undefined,,exh-clausal,"[0, 0, 0]",1,,"Some of the symbols are triangles, but not all of them are triangles.",,"[0, 1]",1,1
True,1,0,There are four spades.,There are four squares.,1851,True,1,13.362266666666667,"[0, 9, 6]","[5, 2, 3]",filler,1,True,"[0, 1]","[0, 0, 0]",,"[3, 8, 2]",6819,0,,undefined,,exh-clausal,"[0, 0, 0]",1,,There are four diamonds.,,"[1, 0]",1,0
True,0,2,"There are four circles, but there are no more than four circles.",There are four hearts.,1921,True,1,13.362266666666667,"[3, 7, 2]","[4, 1, 7]",filler,0,True,"[1, 0]","[0, 0, 0]",,"[7, 9, 0]",9399,0,,undefined,,exh-clausal,"[0, 0, 0]",1,,"There are four spades, but there are no more than four spades.",,"[1, 0]",1,0
True,1,1,Some of the symbols are clubs.,Some of the symbols are hearts.,2705,True,0,13.362266666666667,"[6, 7, 1]","[4, 8, 0]",response,1,True,"[0, 1]","[0, 0, 0]",,"[1, 7, 4]",8301,0,,undefined,,exh-clausal,"[0, 0, 0]",1,,Some of the symbols are stars.,,"[1, 0]",1,0
True,1,3,0 + 3 = ?,Some of the symbols are notes.,1919,True,0,13.362266666666667,"[1, 0, 1]","[8, 7, 0]",filler,1,True,"[0, 1]","[9, 0, 0]",,"[3, 0, 3]",5789,0,,undefined,,exh-clausal,"[3, 0, 0]",1,,0 + 1 = ?,,"[1, 0]",1,0
True,1,1,There are four stars.,There are four hearts.,1685,True,1,13.362266666666667,"[2, 5, 0]","[4, 3, 5]",filler,1,True,"[0, 1]","[0, 0, 0]",,"[6, 9, 3]",5582,0,,undefined,,exh-clausal,"[0, 0, 0]",1,,There are four ticks.,,"[1, 0]",1,0
True,0,0,Some of the symbols are stars.,Some of the symbols are squares.,2898,True,0,13.362266666666667,"[2, 8, 1]","[5, 7, 3]",filler,0,True,"[1, 0]","[0, 0, 0]",,"[6, 8, 5]",7364,0,,undefined,,exh-clausal,"[0, 0, 0]",1,,Some of the symbols are ticks.,,"[1, 0]",1,0
True,1,2,"There is a diamond, but there is nothing besides a diamond.",There is a triangle.,1666,True,2,13.362266666666667,"[4, 2, 3]","[9, 7, 1]",filler,1,True,"[0, 1]","[0, 0, 0]",,"[0, 8, 3]",6893,1,,undefined,,exh-clausal,"[0, 0, 0]",1,,"There is a heart, but there is nothing besides a heart.",,"[0, 1]",1,1
True,0,2,"There is a circle, but there is nothing besides a circle.",There is a club.,2083,True,2,13.362266666666667,"[1, 3, 4]","[1, 2, 3]",filler,0,True,"[1, 0]","[0, 0, 0]",,"[7, 2, 1]",6939,1,,undefined,,exh-clausal,"[0, 0, 0]",1,,"There is a club, but there is nothing besides a club.",,"[0, 1]",1,1
True,0,0,There is a club.,There is a note.,1970,True,2,13.362266666666667,"[4, 1, 7]","[8, 3, 6]",filler,0,True,"[1, 0]","[0, 0, 0]",,"[1, 7, 2]",5834,1,,undefined,,exh-clausal,"[0, 0, 0]",1,,There is a heart.,,"[0, 1]",1,1
True,0,2,"Some of the symbols are notes, but not all of them are notes.",Some of the symbols are circles.,2260,True,0,13.362266666666667,"[9, 4, 7]","[7, 9, 0]",response,0,True,"[1, 0]","[0, 0, 0]",,"[8, 7, 3]",13590,1,,undefined,,exh-clausal,"[0, 0, 0]",1,,"Some of the symbols are triangles, but not all of them are triangles.",,"[0, 1]",1,1
True,0,1,There are four hearts.,There are four hearts.,1686,True,1,13.362266666666667,"[3, 6, 5]","[4, 6, 9]",response,0,True,"[1, 0]","[0, 0, 0]",,"[4, 9, 5]",5333,0,,undefined,,exh-clausal,"[0, 0, 0]",1,,There are four spades.,,"[1, 0]",1,0
True,1,3,5 + 4 = ?,Some of the symbols are ticks.,2177,False,0,13.362266666666667,"[6, 6, 0]","[2, 4, 0]",response,0,False,"[1, 0]","[9, 0, 0]",,"[9, 5, 4]",5541,0,,undefined,,exh-clausal,"[5, 0, 0]",1,,6 + 0 = ?,,"[1, 0]",1,0
True,0,0,Some of the symbols are clubs.,Some of the symbols are stars.,1911,True,0,13.362266666666667,"[0, 9, 6]","[6, 2, 9]",response,0,True,"[1, 0]","[0, 0, 0]",,"[1, 3, 8]",9440,0,,undefined,,exh-clausal,"[0, 0, 0]",0,,Some of the symbols are diamonds.,,"[1, 0]",1,0
False,0,3,3 + 3 = ?,Some of the symbols are clubs.,2118,False,0,13.362266666666667,"[6, 4, 2]","[1, 4, 5]",filler,1,False,"[0, 1]","[9, 0, 0]",,"[6, 3, 3]",5453,0,,undefined,,exh-clausal,"[1, 0, 0]",1,,4 + 2 = ?,,"[1, 0]",1,1
True,0,1,There are four ticks.,There are four stars.,1818,True,1,13.362266666666667,"[8, 3, 7]","[6, 9, 1]",filler,0,True,"[1, 0]","[0, 0, 0]",,"[2, 4, 6]",5265,0,,undefined,,exh-clausal,"[0, 0, 0]",1,,There are four notes.,,"[1, 0]",1,0
True,1,1,There is a star.,There is a spade.,3374,True,2,13.362266666666667,"[6, 8, 7]","[3, 8, 1]",filler,1,True,"[0, 1]","[0, 0, 0]",,"[6, 7, 8]",7811,0,,undefined,,exh-clausal,"[0, 0, 0]",1,,There is a star.,,"[1, 0]",1,0
True,0,3,8 + 5 = ?,There is a note.,5518,True,2,13.362266666666667,"[7, 2, 5]","[8, 4, 2]",response,0,True,"[1, 0]","[9, 0, 0]",,"[13, 8, 5]",10342,1,,undefined,,exh-clausal,"[8, 0, 0]",0,,2 + 5 = ?,,"[0, 1]",1,1
False,0,3,3 + 2 = ?,Some of the symbols are clubs.,2108,False,0,13.362266666666667,"[4, 1, 3]","[1, 7, 0]",response,1,False,"[0, 1]","[5, 0, 0]",,"[5, 3, 2]",5953,0,,undefined,,exh-clausal,"[1, 0, 0]",1,,1 + 3 = ?,,"[1, 0]",1,1
True,0,3,7 + 1 = ?,There are four stars.,1687,False,1,13.362266666666667,"[13, 4, 9]","[6, 2, 9]",response,1,False,"[0, 1]","[4, 0, 0]",,"[8, 7, 1]",5888,1,,undefined,,exh-clausal,"[9, 0, 0]",1,,4 + 9 = ?,,"[0, 1]",1,1
True,1,0,There are four clubs.,There are four spades.,2040,True,1,13.362266666666667,"[0, 4, 6]","[3, 7, 8]",response,1,True,"[0, 1]","[0, 0, 0]",,"[1, 8, 6]",5915,1,,undefined,,exh-clausal,"[0, 0, 0]",1,,There are four diamonds.,,"[0, 1]",1,1
False,0,3,3 + 1 = ?,There are four squares.,2212,False,1,13.362266666666667,"[3, 0, 3]","[5, 0, 7]",response,1,False,"[0, 1]","[4, 0, 0]",,"[4, 3, 1]",6862,0,,undefined,,exh-clausal,"[6, 0, 0]",1,,0 + 3 = ?,,"[1, 0]",1,1
True,1,1,Some of the symbols are hearts.,Some of the symbols are notes.,2748,True,0,13.362266666666667,"[2, 9, 5]","[8, 1, 6]",filler,1,True,"[0, 1]","[0, 0, 0]",,"[4, 2, 6]",8526,0,,undefined,,exh-clausal,"[0, 0, 0]",1,,Some of the symbols are ticks.,,"[1, 0]",1,0
True,0,1,Some of the symbols are ticks.,Some of the symbols are squares.,1795,True,0,13.362266666666667,"[2, 3, 8]","[5, 4, 6]",filler,0,True,"[1, 0]","[0, 0, 0]",,"[2, 8, 3]",7470,1,,undefined,,exh-clausal,"[0, 0, 0]",1,,Some of the symbols are ticks.,,"[0, 1]",1,1
True,1,1,Some of the symbols are circles.,Some of the symbols are spades.,2042,True,0,13.362266666666667,"[5, 6, 9]","[3, 0, 1]",response,1,True,"[0, 1]","[0, 0, 0]",,"[7, 2, 6]",6016,1,,undefined,,exh-clausal,"[0, 0, 0]",1,,Some of the symbols are squares.,,"[0, 1]",1,1
True,0,1,There is a note.,There is a tick.,2051,True,2,13.362266666666667,"[9, 4, 0]","[2, 6, 4]",response,0,True,"[1, 0]","[0, 0, 0]",,"[8, 1, 7]",5740,0,,undefined,,exh-clausal,"[0, 0, 0]",1,,There is a triangle.,,"[1, 0]",1,0
True,1,1,Some of the symbols are squares.,Some of the symbols are hearts.,2231,True,0,13.362266666666667,"[1, 3, 9]","[4, 0, 7]",filler,1,True,"[0, 1]","[0, 0, 0]",,"[5, 3, 0]",10670,1,,undefined,,exh-clausal,"[0, 0, 0]",1,,Some of the symbols are clubs.,,"[0, 1]",1,1
True,0,0,There is a tick.,There is a tick.,2669,True,2,13.362266666666667,"[3, 9, 6]","[2, 1, 5]",response,0,True,"[1, 0]","[0, 0, 0]",,"[2, 7, 4]",6313,0,,undefined,,exh-clausal,"[0, 0, 0]",0,,There is a spade.,,"[1, 0]",1,0
False,1,1,There are four triangles.,There are four notes.,1894,False,1,13.362266666666667,"[5, 4, 2]","[8, 3, 2]",response,1,True,"[0, 1]","[0, 0, 0]",,"[9, 3, 8]",7024,1,,undefined,,exh-clausal,"[0, 0, 0]",1,,There are four squares.,,"[0, 1]",1,0
True,1,3,5 + 5 = ?,There is a triangle.,2051,False,2,13.362266666666667,"[7, 6, 1]","[9, 2, 6]",response,0,False,"[1, 0]","[3, 0, 0]",,"[10, 5, 5]",5627,0,,undefined,,exh-clausal,"[4, 0, 0]",0,,6 + 1 = ?,,"[1, 0]",1,0
True,1,0,There is a triangle.,There is a note.,1684,True,2,13.362266666666667,"[4, 6, 7]","[8, 4, 6]",filler,1,True,"[0, 1]","[0, 0, 0]",,"[9, 5, 6]",5627,1,,undefined,,exh-clausal,"[0, 0, 0]",1,,There is a heart.,,"[0, 1]",1,1
True,1,0,There are four notes.,There are four diamonds.,1831,True,1,13.362266666666667,"[5, 6, 4]","[0, 3, 7]",filler,1,True,"[0, 1]","[0, 0, 0]",,"[8, 9, 1]",7707,0,,undefined,,exh-clausal,"[0, 0, 0]",1,,There are four squares.,,"[1, 0]",1,0
True,0,2,"Some of the symbols are triangles, but not all of them are triangles.",Some of the symbols are circles.,1987,True,0,13.362266666666667,"[5, 8, 1]","[7, 5, 0]",response,0,True,"[1, 0]","[0, 0, 0]",,"[9, 6, 2]",7075,1,,undefined,,exh-clausal,"[0, 0, 0]",1,,"Some of the symbols are squares, but not all of them are squares.",,"[0, 1]",1,1
True,1,0,Some of the symbols are clubs.,Some of the symbols are spades.,1849,True,0,13.362266666666667,"[2, 1, 5]","[3, 8, 9]",filler,1,True,"[0, 1]","[0, 0, 0]",,"[1, 7, 4]",6795,1,,undefined,,exh-clausal,"[0, 0, 0]",1,,Some of the symbols are ticks.,,"[0, 1]",1,1
True,1,1,There is a star.,There is a tick.,2424,True,2,13.362266666666667,"[9, 4, 7]","[2, 5, 4]",response,1,True,"[0, 1]","[0, 0, 0]",,"[6, 8, 3]",6748,1,,undefined,,exh-clausal,"[0, 0, 0]",1,,There is a triangle.,,"[0, 1]",1,1
False,1,3,6 + 9 = ?,There are four ticks.,1860,False,1,13.362266666666667,"[1, 1, 0]","[2, 6, 3]",filler,0,False,"[1, 0]","[6, 0, 0]",,"[15, 6, 9]",7091,1,,undefined,,exh-clausal,"[0, 0, 0]",1,,1 + 0 = ?,,"[0, 1]",1,0
True,0,0,There is a club.,There is a club.,2097,True,2,13.362266666666667,"[9, 4, 5]","[1, 9, 5]",filler,0,True,"[1, 0]","[0, 0, 0]",,"[1, 9, 2]",8693,1,,undefined,,exh-clausal,"[0, 0, 0]",1,,There is a triangle.,,"[0, 1]",1,1
True,1,2,"There is a note, but there is nothing besides a note.",There is a heart.,2292,True,2,13.362266666666667,"[4, 7, 0]","[4, 5, 7]",response,1,True,"[0, 1]","[0, 0, 0]",,"[8, 0, 9]",7069,1,,undefined,,exh-clausal,"[0, 0, 0]",0,,"There is a heart, but there is nothing besides a heart.",,"[0, 1]",1,1
True,1,2,"There is a star, but there is nothing besides a star.",There is a triangle.,2044,True,2,13.362266666666667,"[2, 1, 7]","[9, 6, 3]",response,1,True,"[0, 1]","[0, 0, 0]",,"[6, 2, 7]",7453,0,,undefined,,exh-clausal,"[0, 0, 0]",0,,"There is a tick, but there is nothing besides a tick.",,"[1, 0]",1,0
True,1,2,"There are four notes, but there are no more than four notes.",There are four hearts.,2506,True,1,13.362266666666667,"[4, 8, 0]","[4, 0, 1]",response,1,True,"[0, 1]","[0, 0, 0]",,"[8, 3, 2]",7308,0,,undefined,,exh-clausal,"[0, 0, 0]",1,,"There are four hearts, but there are no more than four hearts.",,"[1, 0]",1,0
True,1,2,"There are four ticks, but there are no more than four ticks.",There are four clubs.,2100,True,1,13.362266666666667,"[0, 8, 6]","[1, 7, 6]",filler,1,True,"[0, 1]","[0, 0, 0]",,"[2, 4, 1]",6762,1,,undefined,,exh-clausal,"[0, 0, 0]",1,,"There are four diamonds, but there are no more than four diamonds.",,"[0, 1]",1,1
False,0,3,3 + 2 = ?,Some of the symbols are hearts.,2849,False,0,13.362266666666667,"[9, 6, 3]","[4, 0, 2]",filler,1,False,"[0, 1]","[9, 0, 0]",,"[5, 3, 2]",7337,1,,undefined,,exh-clausal,"[1, 0, 0]",1,,6 + 3 = ?,,"[0, 1]",1,0
True,1,1,There is a circle.,There is a spade.,2386,True,2,13.362266666666667,"[6, 8, 4]","[3, 5, 9]",filler,1,True,"[0, 1]","[0, 0, 0]",,"[7, 4, 3]",5557,1,,undefined,,exh-clausal,"[0, 0, 0]",1,,There is a star.,,"[0, 1]",1,1
True,1,1,Some of the symbols are ticks.,Some of the symbols are ticks.,2045,True,0,13.362266666666667,"[2, 0, 9]","[2, 4, 9]",filler,1,True,"[0, 1]","[0, 0, 0]",,"[2, 0, 6]",7519,1,,undefined,,exh-clausal,"[0, 0, 0]",1,,Some of the symbols are ticks.,,"[0, 1]",1,1
True,0,1,There is a triangle.,There is a star.,1783,True,2,13.362266666666667,"[2, 1, 5]","[6, 1, 2]",response,0,True,"[1, 0]","[0, 0, 0]",,"[9, 8, 6]",5161,1,,undefined,,exh-clausal,"[0, 0, 0]",1,,There is a tick.,,"[0, 1]",1,1
True,0,1,There are four triangles.,There are four squares.,1659,True,1,13.362266666666667,"[6, 7, 8]","[5, 7, 1]",filler,0,True,"[1, 0]","[0, 0, 0]",,"[9, 2, 8]",11109,1,,undefined,,exh-clausal,"[0, 0, 0]",1,,There are four stars.,,"[0, 1]",1,1
True,1,2,"There are four diamonds, but there are no more than four diamonds.",There are four triangles.,2641,True,1,13.362266666666667,"[0, 8, 2]","[9, 5, 8]",response,1,True,"[0, 1]","[0, 0, 0]",,"[0, 4, 5]",8636,0,,undefined,,exh-clausal,"[0, 0, 0]",1,,"There are four diamonds, but there are no more than four diamonds.",,"[1, 0]",1,0
False,0,3,5 + 4 = ?,There are four spades.,1862,False,1,13.362266666666667,"[9, 5, 4]","[3, 6, 1]",filler,0,True,"[1, 0]","[6, 0, 0]",,"[9, 5, 4]",6514,0,,undefined,,exh-clausal,"[3, 0, 0]",1,,5 + 4 = ?,,"[1, 0]",1,1
True,1,0,Some of the symbols are diamonds.,Some of the symbols are squares.,2104,True,0,13.362266666666667,"[3, 8, 0]","[5, 8, 7]",filler,1,True,"[0, 1]","[0, 0, 0]",,"[0, 7, 5]",7320,0,,undefined,,exh-clausal,"[0, 0, 0]",1,,Some of the symbols are spades.,,"[1, 0]",1,0
True,0,2,"There are four squares, but there are no more than four squares.",There are four diamonds.,2085,True,1,13.362266666666667,"[2, 3, 1]","[0, 8, 3]",response,0,True,"[1, 0]","[0, 0, 0]",,"[5, 2, 0]",6665,1,,undefined,,exh-clausal,"[0, 0, 0]",1,,"There are four ticks, but there are no more than four ticks.",,"[0, 1]",1,1
True,1,3,5 + 1 = ?,There is a spade.,3596,False,2,13.362266666666667,"[12, 6, 6]","[3, 6, 1]",response,0,False,"[1, 0]","[5, 0, 0]",,"[6, 5, 1]",6803,0,,undefined,,exh-clausal,"[1, 0, 0]",1,,6 + 6 = ?,,"[1, 0]",1,0
True,0,1,There are four spades.,There are four triangles.,1638,True,1,13.362266666666667,"[2, 5, 8]","[9, 3, 5]",filler,0,True,"[1, 0]","[0, 0, 0]",,"[3, 8, 7]",5153,1,,undefined,,exh-clausal,"[0, 0, 0]",1,,There are four ticks.,,"[0, 1]",1,1
True,0,2,"There are four clubs, but there are no more than four clubs.",There are four triangles.,1656,True,1,13.362266666666667,"[1, 6, 4]","[9, 7, 3]",filler,0,True,"[1, 0]","[0, 0, 0]",,"[1, 7, 0]",7873,1,,undefined,,exh-clausal,"[0, 0, 0]",1,,"There are four clubs, but there are no more than four clubs.",,"[0, 1]",1,1
True,1,0,There are four diamonds.,There are four triangles.,1779,True,1,13.362266666666667,"[3, 9, 4]","[9, 8, 7]",response,1,True,"[0, 1]","[0, 0, 0]",,"[0, 4, 9]",5228,0,,undefined,,exh-clausal,"[0, 0, 0]",1,,There are four spades.,,"[1, 0]",1,0
True,0,2,"There are four stars, but there are no more than four stars.",There are four clubs.,2107,True,1,13.362266666666667,"[5, 6, 3]","[1, 0, 4]",response,0,True,"[1, 0]","[0, 0, 0]",,"[6, 5, 7]",6478,1,,undefined,,exh-clausal,"[0, 0, 0]",1,,"There are four squares, but there are no more than four squares.",,"[0, 1]",1,1
True,1,2,"Some of the symbols are diamonds, but not all of them are diamonds.",Some of the symbols are hearts.,2584,True,0,13.362266666666667,"[0, 4, 5]","[4, 1, 0]",filler,1,True,"[0, 1]","[0, 0, 0]",,"[0, 1, 4]",7719,1,,undefined,,exh-clausal,"[0, 0, 0]",1,,"Some of the symbols are diamonds, but not all of them are diamonds.",,"[0, 1]",1,1
False,1,3,4 + 8 = ?,There are four diamonds.,1844,False,1,13.362266666666667,"[8, 6, 2]","[0, 3, 1]",response,0,False,"[1, 0]","[5, 0, 0]",,"[12, 4, 8]",6619,1,,undefined,,exh-clausal,"[4, 0, 0]",1,,6 + 2 = ?,,"[0, 1]",1,0
True,0,2,"There is a circle, but there is nothing besides a circle.",There is a heart.,3319,True,2,13.362266666666667,"[8, 9, 5]","[4, 9, 1]",response,0,True,"[1, 0]","[0, 0, 0]",,"[7, 1, 9]",7501,1,,undefined,,exh-clausal,"[0, 0, 0]",1,,"There is a note, but there is nothing besides a note.",,"[0, 1]",1,1
True,1,1,There is a spade.,There is a star.,1798,True,2,13.362266666666667,"[2, 0, 8]","[6, 0, 7]",filler,1,True,"[0, 1]","[0, 0, 0]",,"[3, 5, 1]",5450,0,,undefined,,exh-clausal,"[0, 0, 0]",1,,There is a tick.,,"[1, 0]",1,0
True,0,3,8 + 1 = ?,Some of the symbols are spades.,2223,True,0,13.362266666666667,"[6, 3, 3]","[3, 4, 1]",response,0,True,"[1, 0]","[0, 0, 0]",,"[9, 8, 1]",5709,1,,undefined,,exh-clausal,"[4, 0, 0]",1,,3 + 3 = ?,,"[0, 1]",1,1
True,0,2,"Some of the symbols are clubs, but not all of them are clubs.",Some of the symbols are stars.,2022,True,0,13.362266666666667,"[1, 9, 0]","[6, 2, 7]",filler,0,True,"[1, 0]","[0, 0, 0]",,"[1, 8, 6]",6843,0,,undefined,,exh-clausal,"[0, 0, 0]",1,,"Some of the symbols are clubs, but not all of them are clubs.",,"[1, 0]",1,0
False,1,3,0 + 2 = ?,Some of the symbols are spades.,3366,False,0,13.362266666666667,"[12, 4, 8]","[3, 0, 2]",response,0,False,"[1, 0]","[4, 0, 0]",,"[2, 0, 2]",7748,1,,undefined,,exh-clausal,"[5, 0, 0]",1,,4 + 8 = ?,,"[0, 1]",1,0
True,1,1,Some of the symbols are circles.,Some of the symbols are triangles.,1563,True,0,13.362266666666667,"[2, 1, 4]","[9, 0, 5]",response,1,True,"[0, 1]","[0, 0, 0]",,"[7, 4, 5]",5617,1,,undefined,,exh-clausal,"[0, 0, 0]",1,,Some of the symbols are ticks.,,"[0, 1]",1,1
True,1,0,There is a note.,There is a tick.,1603,True,2,13.362266666666667,"[0, 9, 7]","[2, 0, 6]",response,1,True,"[0, 1]","[0, 0, 0]",,"[8, 0, 6]",5633,0,,undefined,,exh-clausal,"[0, 0, 0]",0,,There is a diamond.,,"[1, 0]",1,0
True,0,2,"Some of the symbols are clubs, but not all of them are clubs.",Some of the symbols are stars.,1740,True,0,13.362266666666667,"[5, 9, 2]","[6, 5, 0]",response,0,True,"[1, 0]","[0, 0, 0]",,"[1, 6, 4]",8202,1,,undefined,,exh-clausal,"[0, 0, 0]",1,,"Some of the symbols are squares, but not all of them are squares.",,"[0, 1]",1,1
False,0,3,9 + 4 = ?,There are four ticks.,1693,False,1,13.362266666666667,"[10, 7, 3]","[2, 3, 6]",response,1,False,"[0, 1]","[7, 0, 0]",,"[13, 9, 4]",6346,0,,undefined,,exh-clausal,"[5, 0, 0]",1,,7 + 3 = ?,,"[1, 0]",1,1
True,0,2,"There is a diamond, but there is nothing besides a diamond.",There is a circle.,1666,True,2,13.362266666666667,"[4, 3, 8]","[7, 4, 9]",filler,0,True,"[1, 0]","[0, 0, 0]",,"[0, 6, 9]",6518,1,,undefined,,exh-clausal,"[0, 0, 0]",1,,"There is a heart, but there is nothing besides a heart.",,"[0, 1]",1,1
True,1,1,There is a note.,There is a tick.,1608,True,2,13.362266666666667,"[1, 7, 2]","[2, 6, 4]",filler,1,True,"[0, 1]","[0, 0, 0]",,"[8, 4, 2]",5419,0,,undefined,,exh-clausal,"[0, 0, 0]",1,,There is a club.,,"[1, 0]",1,0
,,,,,,,,18.678533333333334,,,,,,,,1,,,,,undefined,bot_check,,,,"[0, 'Mary']",,Mary,,2,
True,1,3,8 + 2 = ?,There is a square.,3464,True,2,18.678533333333334,"[6, 3, 3]","[5, 1, 0]",filler,1,True,"[0, 1]","[3, 0, 0]",,"[10, 8, 2]",16024,0,,undefined,,exh-clausal,"[2, 0, 0]",1,,3 + 3 = ?,,"[1, 0]",2,0
True,1,1,There is a star.,There is a star.,3631,True,2,18.678533333333334,"[8, 4, 5]","[6, 5, 9]",response,1,True,"[0, 1]","[0, 0, 0]",,"[6, 7, 9]",10343,0,,undefined,,exh-clausal,"[0, 0, 0]",1,,There is a note.,,"[1, 0]",2,0
False,0,3,5 + 5 = ?,There are four triangles.,3440,False,1,18.678533333333334,"[15, 9, 6]","[9, 0, 8]",filler,1,False,"[0, 1]","[1, 0, 0]",,"[10, 5, 5]",9841,0,,undefined,,exh-clausal,"[1, 0, 0]",1,,9 + 6 = ?,,"[1, 0]",2,1
True,1,1,Some of the symbols are circles.,Some of the symbols are stars.,4607,True,0,18.678533333333334,"[3, 2, 7]","[6, 3, 0]",response,1,True,"[0, 1]","[0, 0, 0]",,"[7, 6, 1]",11431,0,,undefined,,exh-clausal,"[0, 0, 0]",1,,Some of the symbols are spades.,,"[1, 0]",2,0
True,0,2,"Some of the symbols are triangles, but not all of them are triangles.",Some of the symbols are diamonds.,3086,True,0,18.678533333333334,"[4, 1, 3]","[0, 9, 2]",filler,0,True,"[1, 0]","[0, 0, 0]",,"[9, 1, 0]",11593,0,,undefined,,exh-clausal,"[0, 0, 0]",1,,"Some of the symbols are hearts, but not all of them are hearts.",,"[1, 0]",2,0
True,0,1,There are four clubs.,There are four ticks.,4239,True,1,18.678533333333334,"[8, 1, 0]","[2, 7, 9]",filler,0,True,"[1, 0]","[0, 0, 0]",,"[1, 5, 2]",12647,1,,undefined,,exh-clausal,"[0, 0, 0]",1,,There are four notes.,,"[0, 1]",2,1
True,1,0,There are four squares.,There are four hearts.,3303,True,1,18.678533333333334,"[5, 9, 1]","[4, 6, 8]",filler,1,True,"[0, 1]","[0, 0, 0]",,"[5, 4, 3]",15464,1,,undefined,,exh-clausal,"[0, 0, 0]",1,,There are four squares.,,"[0, 1]",2,1
True,0,1,There is a heart.,There is a spade.,4375,True,2,18.678533333333334,"[0, 7, 1]","[3, 8, 4]",response,0,True,"[1, 0]","[0, 0, 0]",,"[4, 1, 2]",12032,1,,undefined,,exh-clausal,"[0, 0, 0]",0,,There is a diamond.,,"[0, 1]",2,1
True,1,1,Some of the symbols are clubs.,Some of the symbols are circles.,15681,True,0,18.678533333333334,"[5, 9, 2]","[7, 8, 9]",filler,1,True,"[0, 1]","[0, 0, 0]",,"[1, 7, 4]",23762,1,,undefined,,exh-clausal,"[0, 0, 0]",1,,Some of the symbols are squares.,,"[0, 1]",2,1
True,1,3,1 + 3 = ?,There are four ticks.,5415,False,1,18.678533333333334,"[17, 9, 8]","[2, 0, 6]",response,0,False,"[1, 0]","[4, 0, 0]",,"[4, 1, 3]",10414,0,,undefined,,exh-clausal,"[0, 0, 0]",1,,9 + 8 = ?,,"[1, 0]",2,0
True,0,0,There is a tick.,There is a spade.,2856,True,2,18.678533333333334,"[7, 1, 0]","[3, 0, 5]",response,0,True,"[1, 0]","[0, 0, 0]",,"[2, 1, 0]",9617,0,,undefined,,exh-clausal,"[0, 0, 0]",0,,There is a circle.,,"[1, 0]",2,0
True,1,2,"Some of the symbols are ticks, but not all of them are ticks.",Some of the symbols are spades.,2879,True,0,18.678533333333334,"[8, 5, 2]","[3, 9, 7]",filler,1,True,"[0, 1]","[0, 0, 0]",,"[2, 5, 6]",10343,0,,undefined,,exh-clausal,"[0, 0, 0]",1,,"Some of the symbols are notes, but not all of them are notes.",,"[1, 0]",2,0
True,0,1,There is a triangle.,There is a tick.,4296,True,2,18.678533333333334,"[8, 0, 1]","[2, 8, 6]",filler,0,True,"[1, 0]","[0, 0, 0]",,"[9, 3, 1]",10689,0,,undefined,,exh-clausal,"[0, 0, 0]",1,,There is a note.,,"[1, 0]",2,0
True,0,0,There are four squares.,There are four squares.,2776,True,1,18.678533333333334,"[1, 0, 2]","[5, 9, 2]",filler,0,True,"[1, 0]","[0, 0, 0]",,"[5, 4, 0]",10448,1,,undefined,,exh-clausal,"[0, 0, 0]",1,,There are four clubs.,,"[0, 1]",2,1
True,1,1,There is a club.,There is a circle.,9496,True,2,18.678533333333334,"[0, 1, 2]","[7, 2, 0]",response,1,True,"[0, 1]","[0, 0, 0]",,"[1, 6, 0]",22192,1,,undefined,,exh-clausal,"[0, 0, 0]",0,,There is a diamond.,,"[0, 1]",2,1
True,1,1,Some of the symbols are triangles.,Some of the symbols are circles.,2791,True,0,18.678533333333334,"[9, 6, 5]","[7, 4, 1]",response,1,True,"[0, 1]","[0, 0, 0]",,"[9, 3, 1]",10088,1,,undefined,,exh-clausal,"[0, 0, 0]",1,,Some of the symbols are triangles.,,"[0, 1]",2,1
True,0,1,There are four hearts.,There are four triangles.,5463,True,1,18.678533333333334,"[8, 2, 9]","[9, 8, 7]",response,0,True,"[1, 0]","[0, 0, 0]",,"[4, 2, 3]",11048,0,,undefined,,exh-clausal,"[0, 0, 0]",1,,There are four notes.,,"[1, 0]",2,0
True,1,3,6 + 7 = ?,There is a triangle.,2421,False,2,18.678533333333334,"[9, 1, 8]","[9, 3, 7]",response,0,False,"[1, 0]","[0, 0, 0]",,"[13, 6, 7]",10181,0,,undefined,,exh-clausal,"[5, 0, 0]",0,,1 + 8 = ?,,"[1, 0]",2,0
True,1,2,"There is a note, but there is nothing besides a note.",There is a triangle.,3456,True,2,18.678533333333334,"[8, 7, 5]","[9, 5, 4]",filler,1,True,"[0, 1]","[0, 0, 0]",,"[8, 5, 9]",11427,0,,undefined,,exh-clausal,"[0, 0, 0]",1,,"There is a note, but there is nothing besides a note.",,"[1, 0]",2,0
False,0,3,8 + 6 = ?,Some of the symbols are notes.,2808,False,0,18.678533333333334,"[14, 7, 7]","[8, 9, 5]",response,1,False,"[0, 1]","[5, 0, 0]",,"[14, 8, 6]",9264,0,,undefined,,exh-clausal,"[4, 0, 0]",1,,7 + 7 = ?,,"[1, 0]",2,1
False,0,3,9 + 1 = ?,Some of the symbols are notes.,3200,False,0,18.678533333333334,"[10, 4, 6]","[8, 2, 0]",response,1,False,"[0, 1]","[3, 0, 0]",,"[10, 9, 1]",9448,0,,undefined,,exh-clausal,"[8, 0, 0]",1,,4 + 6 = ?,,"[1, 0]",2,1
True,0,2,"There is a star, but there is nothing besides a star.",There is a circle.,6536,True,2,18.678533333333334,"[2, 8, 3]","[7, 8, 2]",response,0,True,"[1, 0]","[0, 0, 0]",,"[6, 1, 3]",30088,1,,undefined,,exh-clausal,"[0, 0, 0]",0,,"There is a tick, but there is nothing besides a tick.",,"[0, 1]",2,1
True,0,2,"There are four hearts, but there are no more than four hearts.",There are four circles.,2600,True,1,18.678533333333334,"[5, 4, 0]","[7, 6, 9]",filler,0,True,"[1, 0]","[0, 0, 0]",,"[4, 7, 3]",9192,0,,undefined,,exh-clausal,"[0, 0, 0]",1,,"There are four squares, but there are no more than four squares.",,"[1, 0]",2,0
True,1,2,"There are four triangles, but there are no more than four triangles.",There are four notes.,4358,True,1,18.678533333333334,"[5, 9, 1]","[8, 0, 2]",filler,1,True,"[0, 1]","[0, 0, 0]",,"[9, 0, 2]",9992,0,,undefined,,exh-clausal,"[0, 0, 0]",1,,"There are four squares, but there are no more than four squares.",,"[1, 0]",2,0
False,1,3,2 + 4 = ?,There is a diamond.,3904,False,2,18.678533333333334,"[15, 6, 9]","[0, 1, 7]",response,0,False,"[1, 0]","[5, 0, 0]",,"[6, 2, 4]",9384,1,,undefined,,exh-clausal,"[3, 0, 0]",0,,6 + 9 = ?,,"[0, 1]",2,0
True,0,1,There are four notes.,There are four spades.,2936,True,1,18.678533333333334,"[1, 0, 8]","[3, 9, 6]",response,0,True,"[1, 0]","[0, 0, 0]",,"[8, 2, 3]",6968,1,,undefined,,exh-clausal,"[0, 0, 0]",0,,There are four clubs.,,"[0, 1]",2,1
True,1,2,"There is a heart, but there is nothing besides a heart.",There is a club.,2904,True,2,18.678533333333334,"[2, 7, 8]","[1, 2, 7]",response,1,True,"[0, 1]","[0, 0, 0]",,"[4, 7, 3]",8992,1,,undefined,,exh-clausal,"[0, 0, 0]",0,,"There is a tick, but there is nothing besides a tick.",,"[0, 1]",2,1
True,1,0,There is a club.,There is a star.,1848,True,2,18.678533333333334,"[8, 5, 7]","[6, 2, 4]",response,1,True,"[0, 1]","[0, 0, 0]",,"[1, 9, 5]",6776,0,,undefined,,exh-clausal,"[0, 0, 0]",0,,There is a note.,,"[1, 0]",2,0
True,1,0,Some of the symbols are circles.,Some of the symbols are spades.,3336,True,0,18.678533333333334,"[4, 9, 0]","[3, 6, 0]",filler,1,True,"[0, 1]","[0, 0, 0]",,"[7, 4, 8]",10952,1,,undefined,,exh-clausal,"[0, 0, 0]",1,,Some of the symbols are hearts.,,"[0, 1]",2,1
True,0,1,There is a diamond.,There is a note.,3000,True,2,18.678533333333334,"[4, 5, 7]","[8, 4, 3]",filler,0,True,"[1, 0]","[0, 0, 0]",,"[0, 2, 6]",10617,1,,undefined,,exh-clausal,"[0, 0, 0]",1,,There is a heart.,,"[0, 1]",2,1
True,0,1,Some of the symbols are diamonds.,Some of the symbols are notes.,4792,True,0,18.678533333333334,"[6, 0, 9]","[8, 6, 7]",filler,0,True,"[1, 0]","[0, 0, 0]",,"[0, 8, 6]",12431,0,,undefined,,exh-clausal,"[0, 0, 0]",1,,Some of the symbols are stars.,,"[1, 0]",2,0
True,1,3,4 + 2 = ?,Some of the symbols are spades.,5952,False,0,18.678533333333334,"[8, 3, 5]","[3, 7, 5]",filler,0,False,"[1, 0]","[5, 0, 0]",,"[6, 4, 2]",11584,0,,undefined,,exh-clausal,"[4, 0, 0]",1,,3 + 5 = ?,,"[1, 0]",2,0
True,0,1,There is a triangle.,There is a square.,2160,True,2,18.678533333333334,"[3, 6, 0]","[5, 7, 9]",response,0,True,"[1, 0]","[0, 0, 0]",,"[9, 7, 5]",10840,0,,undefined,,exh-clausal,"[0, 0, 0]",0,,There is a spade.,,"[1, 0]",2,0
True,0,3,4 + 5 = ?,Some of the symbols are ticks.,5636,False,0,18.678533333333334,"[7, 3, 4]","[2, 5, 4]",response,1,False,"[0, 1]","[8, 0, 0]",,"[9, 4, 5]",12640,1,,undefined,,exh-clausal,"[8, 0, 0]",1,,3 + 4 = ?,,"[0, 1]",2,1
True,0,2,"Some of the symbols are ticks, but not all of them are ticks.",Some of the symbols are spades.,2880,True,0,18.678533333333334,"[0, 5, 8]","[3, 4, 6]",response,0,True,"[1, 0]","[0, 0, 0]",,"[2, 3, 6]",8712,1,,undefined,,exh-clausal,"[0, 0, 0]",1,,"Some of the symbols are diamonds, but not all of them are diamonds.",,"[0, 1]",2,1
True,1,0,There is a square.,There is a club.,3802,True,2,18.678533333333334,"[0, 6, 3]","[1, 9, 0]",response,1,True,"[0, 1]","[0, 0, 0]",,"[5, 9, 3]",10698,1,,undefined,,exh-clausal,"[0, 0, 0]",0,,There is a diamond.,,"[0, 1]",2,1
True,0,0,There are four triangles.,There are four stars.,3000,True,1,18.678533333333334,"[7, 3, 2]","[6, 5, 7]",filler,0,True,"[1, 0]","[0, 0, 0]",,"[9, 1, 0]",12134,1,,undefined,,exh-clausal,"[0, 0, 0]",1,,There are four circles.,,"[0, 1]",2,1
True,0,1,There are four triangles.,There are four stars.,2591,True,1,18.678533333333334,"[6, 7, 5]","[6, 7, 3]",filler,0,True,"[1, 0]","[0, 0, 0]",,"[9, 1, 0]",14367,1,,undefined,,exh-clausal,"[0, 0, 0]",1,,There are four stars.,,"[0, 1]",2,1
True,0,0,There are four ticks.,There are four clubs.,2851,True,1,18.678533333333334,"[6, 2, 9]","[1, 3, 9]",filler,0,True,"[1, 0]","[0, 0, 0]",,"[2, 3, 5]",11612,0,,undefined,,exh-clausal,"[0, 0, 0]",1,,There are four stars.,,"[1, 0]",2,0
True,0,2,"There are four hearts, but there are no more than four hearts.",There are four stars.,2512,True,1,18.678533333333334,"[2, 6, 0]","[6, 0, 5]",response,0,True,"[1, 0]","[0, 0, 0]",,"[4, 1, 2]",8029,1,,undefined,,exh-clausal,"[0, 0, 0]",0,,"There are four ticks, but there are no more than four ticks.",,"[0, 1]",2,1
True,1,1,Some of the symbols are hearts.,Some of the symbols are ticks.,6600,True,0,18.678533333333334,"[7, 6, 4]","[2, 7, 9]",response,1,True,"[0, 1]","[0, 0, 0]",,"[4, 8, 6]",19592,0,,undefined,,exh-clausal,"[0, 0, 0]",1,,Some of the symbols are circles.,,"[1, 0]",2,0
True,1,0,Some of the symbols are stars.,Some of the symbols are spades.,3504,True,0,18.678533333333334,"[4, 8, 6]","[3, 6, 8]",response,1,True,"[0, 1]","[0, 0, 0]",,"[6, 5, 9]",10040,1,,undefined,,exh-clausal,"[0, 0, 0]",0,,Some of the symbols are hearts.,,"[0, 1]",2,1
True,1,0,There is a tick.,There is a heart.,3112,True,2,18.678533333333334,"[2, 9, 6]","[4, 5, 0]",filler,1,True,"[0, 1]","[0, 0, 0]",,"[2, 3, 8]",8600,1,,undefined,,exh-clausal,"[0, 0, 0]",1,,There is a tick.,,"[0, 1]",2,1
True,1,1,Some of the symbols are notes.,Some of the symbols are squares.,4197,True,0,18.678533333333334,"[3, 7, 0]","[5, 4, 7]",response,1,True,"[0, 1]","[0, 0, 0]",,"[8, 3, 5]",9919,1,,undefined,,exh-clausal,"[0, 0, 0]",1,,Some of the symbols are spades.,,"[0, 1]",2,1
True,1,0,Some of the symbols are triangles.,Some of the symbols are notes.,3239,True,0,18.678533333333334,"[9, 8, 5]","[8, 7, 3]",response,1,True,"[0, 1]","[0, 0, 0]",,"[9, 1, 7]",9807,1,,undefined,,exh-clausal,"[0, 0, 0]",1,,Some of the symbols are triangles.,,"[0, 1]",2,1
True,1,0,There is a note.,There is a spade.,2256,True,2,18.678533333333334,"[3, 7, 0]","[3, 2, 7]",response,1,True,"[0, 1]","[0, 0, 0]",,"[8, 3, 0]",8616,0,,undefined,,exh-clausal,"[0, 0, 0]",0,,There is a spade.,,"[1, 0]",2,0
True,1,2,"There are four clubs, but there are no more than four clubs.",There are four hearts.,2712,True,1,18.678533333333334,"[2, 5, 0]","[4, 3, 0]",filler,1,True,"[0, 1]","[0, 0, 0]",,"[1, 3, 2]",7752,0,,undefined,,exh-clausal,"[0, 0, 0]",1,,"There are four ticks, but there are no more than four ticks.",,"[1, 0]",2,0
True,0,0,There are four circles.,There are four notes.,4138,True,1,18.678533333333334,"[4, 3, 5]","[8, 3, 5]",response,0,True,"[1, 0]","[0, 0, 0]",,"[7, 4, 0]",9562,0,,undefined,,exh-clausal,"[0, 0, 0]",0,,There are four hearts.,,"[1, 0]",2,0
True,1,3,4 + 6 = ?,Some of the symbols are spades.,3175,True,0,18.678533333333334,"[5, 5, 0]","[3, 4, 1]",filler,1,True,"[0, 1]","[8, 0, 0]",,"[10, 4, 6]",11773,0,,undefined,,exh-clausal,"[5, 0, 0]",1,,5 + 0 = ?,,"[1, 0]",2,0
True,0,0,Some of the symbols are spades.,Some of the symbols are notes.,3360,True,0,18.678533333333334,"[4, 5, 0]","[8, 5, 6]",filler,0,True,"[1, 0]","[0, 0, 0]",,"[3, 8, 4]",10025,0,,undefined,,exh-clausal,"[0, 0, 0]",1,,Some of the symbols are hearts.,,"[1, 0]",2,0
True,1,2,"There are four diamonds, but there are no more than four diamonds.",There are four circles.,4624,True,1,18.678533333333334,"[3, 8, 2]","[7, 8, 3]",response,1,True,"[0, 1]","[0, 0, 0]",,"[0, 9, 8]",12072,1,,undefined,,exh-clausal,"[0, 0, 0]",0,,"There are four spades, but there are no more than four spades.",,"[0, 1]",2,1
True,0,2,"There are four circles, but there are no more than four circles.",There are four clubs.,3816,True,1,18.678533333333334,"[9, 0, 2]","[1, 0, 6]",response,0,True,"[1, 0]","[0, 0, 0]",,"[7, 9, 4]",12280,0,,undefined,,exh-clausal,"[0, 0, 0]",0,,"There are four triangles, but there are no more than four triangles.",,"[1, 0]",2,0
True,0,2,"Some of the symbols are triangles, but not all of them are triangles.",Some of the symbols are circles.,8831,True,0,18.678533333333334,"[8, 2, 4]","[7, 8, 3]",response,0,True,"[1, 0]","[0, 0, 0]",,"[9, 4, 8]",15375,0,,undefined,,exh-clausal,"[0, 0, 0]",1,,"Some of the symbols are notes, but not all of them are notes.",,"[1, 0]",2,0
True,0,3,6 + 8 = ?,There are four stars.,2415,True,1,18.678533333333334,"[3, 1, 2]","[6, 5, 1]",filler,0,True,"[1, 0]","[1, 0, 0]",,"[14, 6, 8]",8008,1,,undefined,,exh-clausal,"[8, 0, 0]",1,,1 + 2 = ?,,"[0, 1]",2,1
True,0,0,Some of the symbols are spades.,Some of the symbols are spades.,3727,True,0,18.678533333333334,"[7, 0, 5]","[3, 7, 5]",response,0,True,"[1, 0]","[0, 0, 0]",,"[3, 5, 1]",11199,0,,undefined,,exh-clausal,"[0, 0, 0]",0,,Some of the symbols are circles.,,"[1, 0]",2,0
True,0,1,There are four squares.,There are four circles.,2944,True,1,18.678533333333334,"[3, 7, 5]","[7, 1, 0]",filler,0,True,"[1, 0]","[0, 0, 0]",,"[5, 2, 9]",7641,1,,undefined,,exh-clausal,"[0, 0, 0]",1,,There are four spades.,,"[0, 1]",2,1
True,1,3,9 + 4 = ?,There is a note.,3064,False,2,18.678533333333334,"[3, 1, 2]","[8, 6, 4]",response,0,False,"[1, 0]","[6, 0, 0]",,"[13, 9, 4]",7496,0,,undefined,,exh-clausal,"[8, 0, 0]",0,,1 + 2 = ?,,"[1, 0]",2,0
True,0,1,There is a spade.,There is a diamond.,2305,True,2,18.678533333333334,"[6, 4, 8]","[0, 8, 9]",filler,0,True,"[1, 0]","[0, 0, 0]",,"[3, 9, 6]",7551,1,,undefined,,exh-clausal,"[0, 0, 0]",0,,There is a star.,,"[0, 1]",2,1
False,1,3,4 + 2 = ?,There are four clubs.,2416,False,1,18.678533333333334,"[14, 6, 8]","[1, 9, 6]",filler,0,False,"[1, 0]","[5, 0, 0]",,"[6, 4, 2]",11864,1,,undefined,,exh-clausal,"[6, 0, 0]",1,,6 + 8 = ?,,"[0, 1]",2,0
True,1,2,"Some of the symbols are notes, but not all of them are notes.",Some of the symbols are ticks.,3287,True,0,18.678533333333334,"[9, 3, 5]","[2, 6, 0]",filler,1,True,"[0, 1]","[0, 0, 0]",,"[8, 9, 1]",8207,1,,undefined,,exh-clausal,"[0, 0, 0]",1,,"Some of the symbols are triangles, but not all of them are triangles.",,"[0, 1]",2,1
True,0,2,"There is a heart, but there is nothing besides a heart.",There is a tick.,2450,True,2,18.678533333333334,"[8, 6, 1]","[2, 5, 7]",filler,0,True,"[1, 0]","[0, 0, 0]",,"[4, 2, 5]",7426,0,,undefined,,exh-clausal,"[0, 0, 0]",1,,"There is a note, but there is nothing besides a note.",,"[1, 0]",2,0
True,1,2,"There is a star, but there is nothing besides a star.",There is a star.,5416,True,2,18.678533333333334,"[8, 4, 0]","[6, 9, 7]",response,1,True,"[0, 1]","[0, 0, 0]",,"[6, 8, 3]",9918,1,,undefined,,exh-clausal,"[0, 0, 0]",0,,"There is a note, but there is nothing besides a note.",,"[0, 1]",2,1
False,0,3,1 + 2 = ?,There are four ticks.,3320,False,1,18.678533333333334,"[7, 4, 3]","[2, 9, 8]",response,1,False,"[0, 1]","[9, 0, 0]",,"[3, 1, 2]",11720,0,,undefined,,exh-clausal,"[8, 0, 0]",0,,4 + 3 = ?,,"[1, 0]",2,1
True,0,1,There are four ticks.,There are four diamonds.,2472,True,1,18.678533333333334,"[5, 9, 3]","[0, 1, 2]",response,0,True,"[1, 0]","[0, 0, 0]",,"[2, 1, 9]",9752,1,,undefined,,exh-clausal,"[0, 0, 0]",0,,There are four squares.,,"[0, 1]",2,1
True,1,0,Some of the symbols are spades.,Some of the symbols are clubs.,2720,True,0,18.678533333333334,"[5, 0, 7]","[1, 0, 6]",response,1,True,"[0, 1]","[0, 0, 0]",,"[3, 9, 2]",8424,0,,undefined,,exh-clausal,"[0, 0, 0]",0,,Some of the symbols are squares.,,"[1, 0]",2,0
True,0,0,There are four circles.,There are four clubs.,2735,True,1,18.678533333333334,"[1, 9, 2]","[1, 7, 2]",response,0,True,"[1, 0]","[0, 0, 0]",,"[7, 2, 3]",7815,1,,undefined,,exh-clausal,"[0, 0, 0]",0,,There are four clubs.,,"[0, 1]",2,1
True,0,3,4 + 4 = ?,There are four squares.,3271,False,1,18.678533333333334,"[17, 9, 8]","[5, 8, 0]",response,1,False,"[0, 1]","[1, 0, 0]",,"[8, 4, 4]",8024,1,,undefined,,exh-clausal,"[7, 0, 0]",0,,9 + 8 = ?,,"[0, 1]",2,1
True,0,0,There is a spade.,There is a heart.,3160,True,2,18.678533333333334,"[4, 7, 9]","[4, 7, 5]",filler,0,True,"[1, 0]","[0, 0, 0]",,"[3, 2, 1]",9889,1,,undefined,,exh-clausal,"[0, 0, 0]",1,,There is a heart.,,"[0, 1]",2,1
True,1,3,9 + 9 = ?,There is a square.,2937,True,2,18.678533333333334,"[9, 5, 4]","[5, 3, 6]",filler,1,True,"[0, 1]","[4, 0, 0]",,"[18, 9, 9]",9496,0,,undefined,,exh-clausal,"[0, 0, 0]",1,,5 + 4 = ?,,"[1, 0]",2,0
True,1,2,"There are four stars, but there are no more than four stars.",There are four stars.,2976,True,1,18.678533333333334,"[9, 7, 6]","[6, 4, 8]",filler,1,True,"[0, 1]","[0, 0, 0]",,"[6, 4, 1]",9944,1,,undefined,,exh-clausal,"[0, 0, 0]",1,,"There are four triangles, but there are no more than four triangles.",,"[0, 1]",2,1
True,1,0,There are four notes.,There are four circles.,3044,True,1,18.678533333333334,"[6, 9, 0]","[7, 3, 0]",response,1,True,"[0, 1]","[0, 0, 0]",,"[8, 3, 5]",8180,0,,undefined,,exh-clausal,"[0, 0, 0]",0,,There are four stars.,,"[1, 0]",2,0
True,1,3,6 + 9 = ?,There are four hearts.,1863,False,1,18.678533333333334,"[7, 1, 6]","[4, 5, 6]",response,0,False,"[1, 0]","[4, 0, 0]",,"[15, 6, 9]",6307,0,,undefined,,exh-clausal,"[8, 0, 0]",0,,1 + 6 = ?,,"[1, 0]",2,0
True,1,2,"There is a note, but there is nothing besides a note.",There is a spade.,2855,True,2,18.678533333333334,"[5, 8, 3]","[3, 6, 1]",response,1,True,"[0, 1]","[0, 0, 0]",,"[8, 2, 6]",8200,1,,undefined,,exh-clausal,"[0, 0, 0]",0,,"There is a square, but there is nothing besides a square.",,"[0, 1]",2,1
True,0,2,"There is a tick, but there is nothing besides a tick.",There is a star.,3895,True,2,18.678533333333334,"[6, 9, 4]","[6, 5, 9]",filler,0,True,"[1, 0]","[0, 0, 0]",,"[2, 3, 0]",10584,0,,undefined,,exh-clausal,"[0, 0, 0]",1,,"There is a star, but there is nothing besides a star.",,"[1, 0]",2,0
True,1,2,"There is a circle, but there is nothing besides a circle.",There is a diamond.,4216,True,2,18.678533333333334,"[4, 8, 0]","[0, 9, 7]",filler,1,True,"[0, 1]","[0, 0, 0]",,"[7, 9, 6]",8761,1,,undefined,,exh-clausal,"[0, 0, 0]",0,,"There is a heart, but there is nothing besides a heart.",,"[0, 1]",2,1
True,0,0,There is a tick.,There is a circle.,2647,True,2,18.678533333333334,"[4, 0, 8]","[7, 2, 5]",filler,0,True,"[1, 0]","[0, 0, 0]",,"[2, 1, 6]",7695,0,,undefined,,exh-clausal,"[0, 0, 0]",1,,There is a heart.,,"[1, 0]",2,0
True,1,1,There are four squares.,There are four clubs.,2447,True,1,18.678533333333334,"[1, 4, 3]","[1, 8, 5]",filler,1,True,"[0, 1]","[0, 0, 0]",,"[5, 2, 1]",9216,1,,undefined,,exh-clausal,"[0, 0, 0]",1,,There are four clubs.,,"[0, 1]",2,1
True,0,2,"Some of the symbols are hearts, but not all of them are hearts.",Some of the symbols are circles.,5086,True,0,18.678533333333334,"[3, 4, 7]","[7, 5, 4]",response,0,True,"[1, 0]","[0, 0, 0]",,"[4, 6, 0]",12351,1,,undefined,,exh-clausal,"[0, 0, 0]",1,,"Some of the symbols are spades, but not all of them are spades.",,"[0, 1]",2,1
True,1,0,There is a club.,There is a note.,2688,True,2,18.678533333333334,"[4, 6, 8]","[8, 0, 2]",filler,1,True,"[0, 1]","[0, 0, 0]",,"[1, 4, 8]",7705,1,,undefined,,exh-clausal,"[0, 0, 0]",0,,There is a heart.,,"[0, 1]",2,1
True,1,2,"Some of the symbols are squares, but not all of them are squares.",Some of the symbols are spades.,2694,True,0,18.678533333333334,"[0, 6, 2]","[3, 4, 6]",filler,1,True,"[0, 1]","[0, 0, 0]",,"[5, 8, 7]",12935,0,,undefined,,exh-clausal,"[0, 0, 0]",1,,"Some of the symbols are diamonds, but not all of them are diamonds.",,"[1, 0]",2,0
True,1,1,Some of the symbols are squares.,Some of the symbols are notes.,2736,True,0,18.678533333333334,"[0, 3, 2]","[8, 7, 4]",filler,1,True,"[0, 1]","[0, 0, 0]",,"[5, 6, 8]",8969,1,,undefined,,exh-clausal,"[0, 0, 0]",1,,Some of the symbols are diamonds.,,"[0, 1]",2,1
True,1,1,There is a club.,There is a diamond.,2455,True,2,18.678533333333334,"[0, 2, 9]","[0, 3, 7]",filler,1,True,"[0, 1]","[0, 0, 0]",,"[1, 4, 3]",7295,1,,undefined,,exh-clausal,"[0, 0, 0]",1,,There is a diamond.,,"[0, 1]",2,1
False,0,3,0 + 1 = ?,There is a note.,2055,False,2,18.678533333333334,"[14, 9, 5]","[8, 3, 1]",response,0,True,"[1, 0]","[2, 0, 0]",,"[1, 0, 1]",6527,0,,undefined,,exh-clausal,"[5, 0, 0]",0,,9 + 5 = ?,,"[1, 0]",2,1
True,1,0,Some of the symbols are triangles.,Some of the symbols are circles.,2239,True,0,18.678533333333334,"[3, 6, 9]","[7, 5, 0]",filler,1,True,"[0, 1]","[0, 0, 0]",,"[9, 8, 6]",9096,0,,undefined,,exh-clausal,"[0, 0, 0]",1,,Some of the symbols are spades.,,"[1, 0]",2,0
False,1,3,1 + 9 = ?,There is a heart.,2911,False,2,18.678533333333334,"[0, 0, 0]","[4, 5, 7]",filler,0,False,"[1, 0]","[6, 0, 0]",,"[10, 1, 9]",7840,1,,undefined,,exh-clausal,"[6, 0, 0]",1,,0 + 0 = ?,,"[0, 1]",2,0
False,0,3,9 + 8 = ?,Some of the symbols are triangles.,2264,False,0,18.678533333333334,"[4, 4, 0]","[9, 7, 6]",filler,0,True,"[1, 0]","[2, 0, 0]",,"[17, 9, 8]",7169,0,,undefined,,exh-clausal,"[6, 0, 0]",1,,4 + 0 = ?,,"[1, 0]",2,1
False,1,3,2 + 5 = ?,Some of the symbols are squares.,4936,False,0,18.678533333333334,"[11, 9, 2]","[5, 8, 0]",response,0,False,"[1, 0]","[9, 0, 0]",,"[7, 2, 5]",9304,1,,undefined,,exh-clausal,"[8, 0, 0]",0,,9 + 2 = ?,,"[0, 1]",2,0
True,1,3,1 + 2 = ?,There are four spades.,2175,True,1,18.678533333333334,"[9, 8, 1]","[3, 7, 5]",filler,1,True,"[0, 1]","[0, 0, 0]",,"[3, 1, 2]",7703,0,,undefined,,exh-clausal,"[2, 0, 0]",1,,8 + 1 = ?,,"[1, 0]",2,0
True,0,2,"Some of the symbols are diamonds, but not all of them are diamonds.",Some of the symbols are ticks.,6632,True,0,18.678533333333334,"[4, 7, 8]","[2, 5, 6]",response,0,True,"[1, 0]","[0, 0, 0]",,"[0, 8, 2]",12152,1,,undefined,,exh-clausal,"[0, 0, 0]",0,,"Some of the symbols are hearts, but not all of them are hearts.",,"[0, 1]",2,1
True,1,1,Some of the symbols are stars.,Some of the symbols are hearts.,2648,True,0,18.678533333333334,"[5, 8, 1]","[4, 2, 1]",filler,1,True,"[0, 1]","[0, 0, 0]",,"[6, 5, 7]",10880,0,,undefined,,exh-clausal,"[0, 0, 0]",1,,Some of the symbols are squares.,,"[1, 0]",2,0
True,0,0,There are four triangles.,There are four ticks.,2015,True,1,18.678533333333334,"[1, 9, 8]","[2, 5, 8]",response,0,True,"[1, 0]","[0, 0, 0]",,"[9, 0, 4]",7703,1,,undefined,,exh-clausal,"[0, 0, 0]",0,,There are four clubs.,,"[0, 1]",2,1
False,1,3,4 + 4 = ?,Some of the symbols are spades.,2735,False,0,18.678533333333334,"[2, 2, 0]","[3, 2, 1]",filler,0,False,"[1, 0]","[7, 0, 0]",,"[8, 4, 4]",9760,1,,undefined,,exh-clausal,"[9, 0, 0]",1,,2 + 0 = ?,,"[0, 1]",2,0
True,1,2,"There are four triangles, but there are no more than four triangles.",There are four circles.,3055,True,1,18.678533333333334,"[7, 4, 2]","[7, 4, 8]",response,1,True,"[0, 1]","[0, 0, 0]",,"[9, 5, 7]",16151,0,,undefined,,exh-clausal,"[0, 0, 0]",0,,"There are four circles, but there are no more than four circles.",,"[1, 0]",2,0
True,0,3,9 + 2 = ?,There is a square.,4391,False,2,18.678533333333334,"[9, 4, 5]","[5, 6, 8]",filler,1,False,"[0, 1]","[5, 0, 0]",,"[11, 9, 2]",10247,1,,undefined,,exh-clausal,"[0, 0, 0]",1,,4 + 5 = ?,,"[0, 1]",2,1
True,1,1,There are four spades.,There are four triangles.,2086,True,1,18.678533333333334,"[3, 9, 8]","[9, 7, 4]",response,1,True,"[0, 1]","[0, 0, 0]",,"[3, 9, 5]",7304,0,,undefined,,exh-clausal,"[0, 0, 0]",0,,There are four spades.,,"[1, 0]",2,0
True,0,0,Some of the symbols are stars.,Some of the symbols are triangles.,3448,True,0,18.678533333333334,"[4, 7, 3]","[9, 6, 8]",filler,0,True,"[1, 0]","[0, 0, 0]",,"[6, 5, 8]",9416,0,,undefined,,exh-clausal,"[0, 0, 0]",1,,Some of the symbols are hearts.,,"[1, 0]",2,0
,,,,,,,,10.8459,,,,,,,,1,,,,,undefined,bot_check,,,,"[0, 'Elizabeth']",,Elizabeth,,3,
False,0,3,9 + 0 = ?,There is a square.,1233,False,2,10.8459,"[16, 7, 9]","[5, 8, 1]",response,1,False,"[0, 1]","[9, 0, 0]",,"[9, 9, 0]",4955,0,,undefined,,exh-clausal,"[7, 0, 0]",0,,7 + 9 = ?,,"[1, 0]",3,1
True,0,0,There are four ticks.,There are four circles.,1971,True,1,10.8459,"[8, 6, 7]","[7, 1, 0]",filler,0,True,"[1, 0]","[0, 0, 0]",,"[2, 5, 0]",6655,1,,undefined,,exh-clausal,"[0, 0, 0]",1,,There are four notes.,,"[0, 1]",3,1
True,1,1,Some of the symbols are diamonds.,Some of the symbols are stars.,2059,True,0,10.8459,"[2, 8, 1]","[6, 3, 1]",filler,1,True,"[0, 1]","[0, 0, 0]",,"[0, 3, 8]",7857,0,,undefined,,exh-clausal,"[0, 0, 0]",1,,Some of the symbols are ticks.,,"[1, 0]",3,0
True,1,2,"There is a star, but there is nothing besides a star.",There is a spade.,2523,True,2,10.8459,"[1, 9, 7]","[3, 0, 6]",filler,1,True,"[0, 1]","[0, 0, 0]",,"[6, 0, 2]",7473,1,,undefined,,exh-clausal,"[0, 0, 0]",1,,"There is a club, but there is nothing besides a club.",,"[0, 1]",3,1
True,1,1,There are four ticks.,There are four squares.,1790,True,1,10.8459,"[5, 1, 8]","[5, 9, 8]",filler,1,True,"[0, 1]","[0, 0, 0]",,"[2, 5, 1]",4678,1,,undefined,,exh-clausal,"[0, 0, 0]",1,,There are four squares.,,"[0, 1]",3,1
True,0,0,Some of the symbols are clubs.,Some of the symbols are ticks.,1811,True,0,10.8459,"[7, 1, 3]","[2, 3, 7]",filler,0,True,"[1, 0]","[0, 0, 0]",,"[1, 6, 0]",8128,1,,undefined,,exh-clausal,"[0, 0, 0]",1,,Some of the symbols are circles.,,"[0, 1]",3,1
False,1,3,3 + 0 = ?,There is a circle.,1914,False,2,10.8459,"[12, 9, 3]","[7, 4, 3]",filler,0,False,"[1, 0]","[0, 0, 0]",,"[3, 3, 0]",4613,1,,undefined,,exh-clausal,"[1, 0, 0]",1,,9 + 3 = ?,,"[0, 1]",3,0
True,0,2,"There is a spade, but there is nothing besides a spade.",There is a tick.,1706,True,2,10.8459,"[3, 5, 9]","[2, 4, 9]",response,0,True,"[1, 0]","[0, 0, 0]",,"[3, 8, 1]",5254,0,,undefined,,exh-clausal,"[0, 0, 0]",0,,"There is a spade, but there is nothing besides a spade.",,"[1, 0]",3,0
True,0,1,There are four diamonds.,There are four diamonds.,2080,True,1,10.8459,"[5, 9, 0]","[0, 9, 3]",filler,0,True,"[1, 0]","[0, 0, 0]",,"[0, 8, 1]",4528,1,,undefined,,exh-clausal,"[0, 0, 0]",1,,There are four squares.,,"[0, 1]",3,1
True,1,3,2 + 4 = ?,There are four stars.,1334,False,1,10.8459,"[10, 6, 4]","[6, 1, 8]",response,0,False,"[1, 0]","[6, 0, 0]",,"[6, 2, 4]",4336,0,,undefined,,exh-clausal,"[9, 0, 0]",0,,6 + 4 = ?,,"[1, 0]",3,0
True,0,2,"Some of the symbols are circles, but not all of them are circles.",Some of the symbols are clubs.,1668,True,0,10.8459,"[5, 9, 4]","[1, 5, 3]",filler,0,True,"[1, 0]","[0, 0, 0]",,"[7, 8, 2]",6246,1,,undefined,,exh-clausal,"[0, 0, 0]",1,,"Some of the symbols are squares, but not all of them are squares.",,"[0, 1]",3,1
True,1,0,Some of the symbols are hearts.,Some of the symbols are circles.,1775,True,0,10.8459,"[8, 7, 6]","[7, 2, 4]",filler,1,True,"[0, 1]","[0, 0, 0]",,"[4, 8, 9]",4516,0,,undefined,,exh-clausal,"[0, 0, 0]",1,,Some of the symbols are notes.,,"[1, 0]",3,0
False,0,3,1 + 3 = ?,There are four clubs.,1577,False,1,10.8459,"[2, 0, 2]","[1, 3, 6]",filler,0,True,"[1, 0]","[4, 0, 0]",,"[4, 1, 3]",4242,0,,undefined,,exh-clausal,"[4, 0, 0]",1,,0 + 2 = ?,,"[1, 0]",3,1
True,1,0,There is a square.,There is a tick.,1705,True,2,10.8459,"[4, 6, 2]","[2, 3, 1]",filler,1,True,"[0, 1]","[0, 0, 0]",,"[5, 4, 7]",5036,1,,undefined,,exh-clausal,"[0, 0, 0]",1,,There is a heart.,,"[0, 1]",3,1
True,1,0,There are four hearts.,There are four stars.,1692,True,1,10.8459,"[8, 2, 0]","[6, 7, 5]",filler,1,True,"[0, 1]","[0, 0, 0]",,"[4, 1, 3]",5323,1,,undefined,,exh-clausal,"[0, 0, 0]",1,,There are four notes.,,"[0, 1]",3,1
True,0,0,There is a heart.,There is a club.,1454,True,2,10.8459,"[2, 7, 4]","[1, 3, 2]",filler,0,True,"[1, 0]","[0, 0, 0]",,"[4, 2, 1]",4506,0,,undefined,,exh-clausal,"[0, 0, 0]",0,,There is a tick.,,"[1, 0]",3,0
True,0,1,Some of the symbols are triangles.,Some of the symbols are triangles.,4862,True,0,10.8459,"[5, 9, 4]","[9, 1, 8]",response,0,True,"[1, 0]","[0, 0, 0]",,"[9, 2, 0]",10024,0,,undefined,,exh-clausal,"[0, 0, 0]",1,,Some of the symbols are squares.,,"[1, 0]",3,0
True,1,3,5 + 9 = ?,There are four circles.,1196,True,1,10.8459,"[7, 0, 7]","[7, 8, 2]",response,1,True,"[0, 1]","[4, 0, 0]",,"[14, 5, 9]",3496,0,,undefined,,exh-clausal,"[0, 0, 0]",0,,0 + 7 = ?,,"[1, 0]",3,0
True,1,2,"Some of the symbols are diamonds, but not all of them are diamonds.",Some of the symbols are hearts.,1712,True,0,10.8459,"[1, 5, 6]","[4, 8, 1]",filler,1,True,"[0, 1]","[0, 0, 0]",,"[0, 2, 7]",8174,1,,undefined,,exh-clausal,"[0, 0, 0]",1,,"Some of the symbols are clubs, but not all of them are clubs.",,"[0, 1]",3,1
False,0,3,8 + 9 = ?,There is a tick.,919,False,2,10.8459,"[9, 4, 5]","[2, 0, 8]",response,1,False,"[0, 1]","[2, 0, 0]",,"[17, 8, 9]",3072,0,,undefined,,exh-clausal,"[6, 0, 0]",0,,4 + 5 = ?,,"[1, 0]",3,1
True,1,1,There are four triangles.,There are four circles.,4229,True,1,10.8459,"[7, 8, 3]","[7, 6, 2]",response,1,True,"[0, 1]","[0, 0, 0]",,"[9, 6, 0]",7134,1,,undefined,,exh-clausal,"[0, 0, 0]",1,,There are four circles.,,"[0, 1]",3,1
True,1,3,5 + 6 = ?,Some of the symbols are triangles.,2200,False,0,10.8459,"[0, 0, 0]","[9, 6, 7]",response,0,False,"[1, 0]","[3, 0, 0]",,"[11, 5, 6]",5460,0,,undefined,,exh-clausal,"[4, 0, 0]",1,,0 + 0 = ?,,"[1, 0]",3,0
True,0,2,"There are four spades, but there are no more than four spades.",There are four clubs.,1376,True,1,10.8459,"[4, 8, 2]","[1, 6, 4]",filler,0,True,"[1, 0]","[0, 0, 0]",,"[3, 9, 7]",4841,0,,undefined,,exh-clausal,"[0, 0, 0]",1,,"There are four hearts, but there are no more than four hearts.",,"[1, 0]",3,0
True,0,0,There is a club.,There is a triangle.,1053,True,2,10.8459,"[5, 2, 0]","[9, 0, 8]",response,0,True,"[1, 0]","[0, 0, 0]",,"[1, 4, 6]",3872,1,,undefined,,exh-clausal,"[0, 0, 0]",0,,There is a square.,,"[0, 1]",3,1
True,1,0,Some of the symbols are spades.,Some of the symbols are spades.,1805,True,0,10.8459,"[5, 0, 7]","[3, 0, 7]",filler,1,True,"[0, 1]","[0, 0, 0]",,"[3, 4, 2]",6831,0,,undefined,,exh-clausal,"[0, 0, 0]",1,,Some of the symbols are squares.,,"[1, 0]",3,0
True,1,3,9 + 9 = ?,Some of the symbols are triangles.,1895,True,0,10.8459,"[6, 1, 5]","[9, 2, 8]",filler,1,True,"[0, 1]","[9, 0, 0]",,"[18, 9, 9]",4272,0,,undefined,,exh-clausal,"[8, 0, 0]",1,,1 + 5 = ?,,"[1, 0]",3,0
True,0,0,Some of the symbols are circles.,Some of the symbols are notes.,2786,True,0,10.8459,"[9, 5, 8]","[8, 3, 6]",response,0,True,"[1, 0]","[0, 0, 0]",,"[7, 5, 3]",6698,1,,undefined,,exh-clausal,"[0, 0, 0]",1,,Some of the symbols are triangles.,,"[0, 1]",3,1
True,0,0,There are four spades.,There are four triangles.,1242,True,1,10.8459,"[2, 1, 4]","[9, 4, 1]",filler,0,True,"[1, 0]","[0, 0, 0]",,"[3, 0, 2]",4135,0,,undefined,,exh-clausal,"[0, 0, 0]",1,,There are four ticks.,,"[1, 0]",3,0
True,1,3,0 + 4 = ?,Some of the symbols are diamonds.,1767,False,0,10.8459,"[13, 6, 7]","[0, 4, 7]",response,0,False,"[1, 0]","[8, 0, 0]",,"[4, 0, 4]",4061,0,,undefined,,exh-clausal,"[6, 0, 0]",1,,6 + 7 = ?,,"[1, 0]",3,0
False,0,3,5 + 3 = ?,There is a diamond.,1311,False,2,10.8459,"[13, 8, 5]","[0, 3, 1]",filler,0,True,"[1, 0]","[5, 0, 0]",,"[8, 5, 3]",4658,0,,undefined,,exh-clausal,"[9, 0, 0]",1,,8 + 5 = ?,,"[1, 0]",3,1
True,0,2,"There is a triangle, but there is nothing besides a triangle.",There is a square.,1166,True,2,10.8459,"[9, 7, 5]","[5, 6, 8]",response,0,True,"[1, 0]","[0, 0, 0]",,"[9, 4, 7]",5645,1,,undefined,,exh-clausal,"[0, 0, 0]",0,,"There is a triangle, but there is nothing besides a triangle.",,"[0, 1]",3,1
True,0,2,"There is a star, but there is nothing besides a star.",There is a star.,2297,True,2,10.8459,"[5, 6, 3]","[6, 4, 9]",filler,0,True,"[1, 0]","[0, 0, 0]",,"[6, 2, 5]",5468,1,,undefined,,exh-clausal,"[0, 0, 0]",1,,"There is a square, but there is nothing besides a square.",,"[0, 1]",3,1
True,1,0,There is a spade.,There is a square.,1486,True,2,10.8459,"[7, 5, 3]","[5, 7, 2]",response,1,True,"[0, 1]","[0, 0, 0]",,"[3, 4, 8]",4931,1,,undefined,,exh-clausal,"[0, 0, 0]",0,,There is a circle.,,"[0, 1]",3,1
True,1,1,There are four circles.,There are four circles.,1354,True,1,10.8459,"[8, 3, 0]","[7, 9, 6]",filler,1,True,"[0, 1]","[0, 0, 0]",,"[7, 8, 2]",3847,0,,undefined,,exh-clausal,"[0, 0, 0]",1,,There are four notes.,,"[1, 0]",3,0
True,1,0,Some of the symbols are stars.,Some of the symbols are hearts.,2072,True,0,10.8459,"[5, 4, 9]","[4, 2, 3]",response,1,True,"[0, 1]","[0, 0, 0]",,"[6, 3, 4]",5741,1,,undefined,,exh-clausal,"[0, 0, 0]",1,,Some of the symbols are squares.,,"[0, 1]",3,1
True,1,3,6 + 2 = ?,There is a diamond.,1259,False,2,10.8459,"[5, 3, 2]","[0, 3, 5]",filler,0,False,"[1, 0]","[3, 0, 0]",,"[8, 6, 2]",3897,0,,undefined,,exh-clausal,"[4, 0, 0]",1,,3 + 2 = ?,,"[1, 0]",3,0
True,1,1,There is a club.,There is a tick.,1552,True,2,10.8459,"[4, 2, 6]","[2, 9, 5]",response,1,True,"[0, 1]","[0, 0, 0]",,"[1, 2, 5]",5040,1,,undefined,,exh-clausal,"[0, 0, 0]",0,,There is a heart.,,"[0, 1]",3,1
False,1,3,2 + 0 = ?,There are four triangles.,1815,False,1,10.8459,"[13, 6, 7]","[9, 0, 6]",filler,0,False,"[1, 0]","[6, 0, 0]",,"[2, 2, 0]",5476,1,,undefined,,exh-clausal,"[2, 0, 0]",1,,6 + 7 = ?,,"[0, 1]",3,0
True,1,1,Some of the symbols are circles.,Some of the symbols are notes.,1820,True,0,10.8459,"[9, 3, 5]","[8, 1, 3]",filler,1,True,"[0, 1]","[0, 0, 0]",,"[7, 2, 5]",6847,0,,undefined,,exh-clausal,"[0, 0, 0]",1,,Some of the symbols are triangles.,,"[1, 0]",3,0
True,0,1,There is a note.,There is a star.,1301,True,2,10.8459,"[8, 0, 7]","[6, 8, 2]",response,0,True,"[1, 0]","[0, 0, 0]",,"[8, 3, 1]",3811,1,,undefined,,exh-clausal,"[0, 0, 0]",0,,There is a note.,,"[0, 1]",3,1
True,1,1,Some of the symbols are hearts.,Some of the symbols are diamonds.,1951,True,0,10.8459,"[5, 9, 6]","[0, 7, 6]",response,1,True,"[0, 1]","[0, 0, 0]",,"[4, 9, 7]",5678,1,,undefined,,exh-clausal,"[0, 0, 0]",1,,Some of the symbols are squares.,,"[0, 1]",3,1
True,1,3,7 + 3 = ?,There are four ticks.,2233,False,1,10.8459,"[18, 9, 9]","[2, 8, 6]",response,0,False,"[1, 0]","[1, 0, 0]",,"[10, 7, 3]",5298,0,,undefined,,exh-clausal,"[0, 0, 0]",1,,9 + 9 = ?,,"[1, 0]",3,0
False,0,0,There are four spades.,There are four hearts.,1062,False,1,10.8459,"[6, 5, 3]","[4, 5, 8]",response,0,True,"[1, 0]","[0, 0, 0]",,"[3, 2, 4]",5785,0,,undefined,,exh-clausal,"[0, 0, 0]",0,,There are four stars.,,"[1, 0]",3,1
True,1,0,There is a spade.,There is a diamond.,1792,True,2,10.8459,"[6, 7, 2]","[0, 5, 8]",filler,1,True,"[0, 1]","[0, 0, 0]",,"[3, 9, 5]",5551,1,,undefined,,exh-clausal,"[0, 0, 0]",1,,There is a star.,,"[0, 1]",3,1
True,0,1,There is a note.,There is a triangle.,1676,True,2,10.8459,"[1, 6, 8]","[9, 4, 0]",filler,0,True,"[1, 0]","[0, 0, 0]",,"[8, 4, 7]",3942,0,,undefined,,exh-clausal,"[0, 0, 0]",0,,There is a club.,,"[1, 0]",3,0
True,1,1,Some of the symbols are stars.,Some of the symbols are spades.,2153,True,0,10.8459,"[5, 0, 9]","[3, 9, 4]",filler,1,True,"[0, 1]","[0, 0, 0]",,"[6, 1, 5]",6212,0,,undefined,,exh-clausal,"[0, 0, 0]",1,,Some of the symbols are squares.,,"[1, 0]",3,0
True,1,2,"There are four squares, but there are no more than four squares.",There are four squares.,1527,True,1,10.8459,"[7, 9, 2]","[5, 3, 7]",filler,1,True,"[0, 1]","[0, 0, 0]",,"[5, 0, 4]",4761,0,,undefined,,exh-clausal,"[0, 0, 0]",1,,"There are four circles, but there are no more than four circles.",,"[1, 0]",3,0
False,0,3,1 + 2 = ?,Some of the symbols are circles.,2452,False,0,10.8459,"[8, 0, 8]","[7, 1, 4]",filler,0,True,"[1, 0]","[9, 0, 0]",,"[3, 1, 2]",5459,0,,undefined,,exh-clausal,"[3, 0, 0]",1,,0 + 8 = ?,,"[1, 0]",3,1
True,1,0,Some of the symbols are notes.,Some of the symbols are diamonds.,36407,True,0,10.8459,"[8, 4, 3]","[0, 8, 6]",response,1,True,"[0, 1]","[0, 0, 0]",,"[8, 6, 7]",40590,0,,undefined,,exh-clausal,"[0, 0, 0]",1,,Some of the symbols are notes.,,"[1, 0]",3,0
True,1,2,"Some of the symbols are spades, but not all of them are spades.",Some of the symbols are stars.,1988,True,0,10.8459,"[5, 9, 0]","[6, 8, 4]",response,1,True,"[0, 1]","[0, 0, 0]",,"[3, 9, 6]",8051,0,,undefined,,exh-clausal,"[0, 0, 0]",1,,"Some of the symbols are squares, but not all of them are squares.",,"[1, 0]",3,0
False,1,3,8 + 3 = ?,Some of the symbols are squares.,2403,False,0,10.8459,"[11, 8, 3]","[5, 0, 9]",filler,0,False,"[1, 0]","[9, 0, 0]",,"[11, 8, 3]",5726,1,,undefined,,exh-clausal,"[5, 0, 0]",1,,8 + 3 = ?,,"[0, 1]",3,0
True,1,1,There are four spades.,There are four circles.,1581,True,1,10.8459,"[4, 2, 7]","[7, 2, 5]",response,1,True,"[0, 1]","[0, 0, 0]",,"[3, 8, 4]",3620,0,,undefined,,exh-clausal,"[0, 0, 0]",1,,There are four hearts.,,"[1, 0]",3,0
True,1,3,3 + 3 = ?,Some of the symbols are ticks.,1347,False,0,10.8459,"[6, 0, 6]","[2, 1, 8]",filler,0,False,"[1, 0]","[7, 0, 0]",,"[6, 3, 3]",3436,0,,undefined,,exh-clausal,"[0, 0, 0]",1,,0 + 6 = ?,,"[1, 0]",3,0
True,1,2,"There is a club, but there is nothing besides a club.",There is a square.,2054,True,2,10.8459,"[0, 7, 6]","[5, 8, 2]",response,1,True,"[0, 1]","[0, 0, 0]",,"[1, 9, 4]",4844,1,,undefined,,exh-clausal,"[0, 0, 0]",0,,"There is a diamond, but there is nothing besides a diamond.",,"[0, 1]",3,1
True,0,0,There is a note.,There is a circle.,1177,True,2,10.8459,"[1, 4, 2]","[7, 5, 8]",response,0,True,"[1, 0]","[0, 0, 0]",,"[8, 1, 2]",5023,0,,undefined,,exh-clausal,"[0, 0, 0]",0,,There is a club.,,"[1, 0]",3,0
True,1,2,"Some of the symbols are clubs, but not all of them are clubs.",Some of the symbols are ticks.,1823,True,0,10.8459,"[2, 6, 5]","[2, 7, 0]",filler,1,True,"[0, 1]","[0, 0, 0]",,"[1, 0, 7]",6414,1,,undefined,,exh-clausal,"[0, 0, 0]",1,,"Some of the symbols are ticks, but not all of them are ticks.",,"[0, 1]",3,1
True,0,1,There are four stars.,There are four circles.,2142,True,1,10.8459,"[3, 9, 2]","[7, 8, 3]",filler,0,True,"[1, 0]","[0, 0, 0]",,"[6, 9, 0]",4984,1,,undefined,,exh-clausal,"[0, 0, 0]",1,,There are four spades.,,"[0, 1]",3,1
True,0,2,"There are four diamonds, but there are no more than four diamonds.",There are four notes.,3123,True,1,10.8459,"[3, 5, 9]","[8, 9, 2]",response,0,True,"[1, 0]","[0, 0, 0]",,"[0, 9, 2]",7424,1,,undefined,,exh-clausal,"[0, 0, 0]",1,,"There are four spades, but there are no more than four spades.",,"[0, 1]",3,1
True,0,1,There are four triangles.,There are four hearts.,1450,True,1,10.8459,"[4, 6, 5]","[4, 7, 5]",response,0,True,"[1, 0]","[0, 0, 0]",,"[9, 5, 7]",3559,1,,undefined,,exh-clausal,"[0, 0, 0]",1,,There are four hearts.,,"[0, 1]",3,1
True,0,3,5 + 9 = ?,There are four squares.,1186,True,1,10.8459,"[12, 6, 6]","[5, 6, 3]",filler,0,True,"[1, 0]","[1, 0, 0]",,"[14, 5, 9]",3392,1,,undefined,,exh-clausal,"[5, 0, 0]",1,,6 + 6 = ?,,"[0, 1]",3,1
True,1,2,"There are four clubs, but there are no more than four clubs.",There are four hearts.,2331,True,1,10.8459,"[5, 3, 6]","[4, 0, 8]",response,1,True,"[0, 1]","[0, 0, 0]",,"[1, 6, 2]",5452,0,,undefined,,exh-clausal,"[0, 0, 0]",1,,"There are four squares, but there are no more than four squares.",,"[1, 0]",3,0
True,1,1,There is a triangle.,There is a spade.,1418,True,2,10.8459,"[6, 5, 0]","[3, 1, 7]",response,1,True,"[0, 1]","[0, 0, 0]",,"[9, 5, 0]",3768,0,,undefined,,exh-clausal,"[0, 0, 0]",0,,There is a star.,,"[1, 0]",3,0
True,1,2,"There are four squares, but there are no more than four squares.",There are four notes.,1455,True,1,10.8459,"[3, 5, 8]","[8, 0, 9]",response,1,True,"[0, 1]","[0, 0, 0]",,"[5, 0, 2]",4601,1,,undefined,,exh-clausal,"[0, 0, 0]",1,,"There are four spades, but there are no more than four spades.",,"[0, 1]",3,1
True,0,1,There is a circle.,There is a note.,1336,True,2,10.8459,"[2, 4, 9]","[8, 1, 9]",filler,0,True,"[1, 0]","[0, 0, 0]",,"[7, 5, 4]",3418,0,,undefined,,exh-clausal,"[0, 0, 0]",1,,There is a tick.,,"[1, 0]",3,0
True,1,2,"Some of the symbols are circles, but not all of them are circles.",Some of the symbols are circles.,2433,True,0,10.8459,"[1, 3, 7]","[7, 6, 1]",response,1,True,"[0, 1]","[0, 0, 0]",,"[7, 6, 3]",7029,1,,undefined,,exh-clausal,"[0, 0, 0]",1,,"Some of the symbols are clubs, but not all of them are clubs.",,"[0, 1]",3,1
True,1,2,"Some of the symbols are spades, but not all of them are spades.",Some of the symbols are notes.,2027,True,0,10.8459,"[5, 0, 2]","[8, 2, 4]",filler,1,True,"[0, 1]","[0, 0, 0]",,"[3, 1, 2]",22265,0,,undefined,,exh-clausal,"[0, 0, 0]",1,,"Some of the symbols are squares, but not all of them are squares.",,"[1, 0]",3,0
True,1,0,There is a circle.,There is a spade.,2832,True,2,10.8459,"[2, 5, 1]","[3, 2, 8]",filler,1,True,"[0, 1]","[0, 0, 0]",,"[7, 9, 1]",5087,0,,undefined,,exh-clausal,"[0, 0, 0]",1,,There is a tick.,,"[1, 0]",3,0
True,1,0,There are four hearts.,There are four squares.,1160,True,1,10.8459,"[8, 4, 7]","[5, 9, 2]",response,1,True,"[0, 1]","[0, 0, 0]",,"[4, 8, 2]",4252,1,,undefined,,exh-clausal,"[0, 0, 0]",0,,There are four notes.,,"[0, 1]",3,1
True,0,1,There is a tick.,There is a note.,1380,True,2,10.8459,"[9, 3, 4]","[8, 6, 5]",response,0,True,"[1, 0]","[0, 0, 0]",,"[2, 5, 9]",3819,1,,undefined,,exh-clausal,"[0, 0, 0]",0,,There is a triangle.,,"[0, 1]",3,1
True,0,2,"There is a star, but there is nothing besides a star.",There is a diamond.,2898,True,2,10.8459,"[9, 5, 6]","[0, 1, 3]",response,0,True,"[1, 0]","[0, 0, 0]",,"[6, 3, 8]",5353,0,,undefined,,exh-clausal,"[0, 0, 0]",0,,"There is a triangle, but there is nothing besides a triangle.",,"[1, 0]",3,0
False,1,3,9 + 7 = ?,Some of the symbols are clubs.,3589,False,0,10.8459,"[11, 2, 9]","[1, 5, 3]",response,0,False,"[1, 0]","[5, 0, 0]",,"[16, 9, 7]",6390,1,,undefined,,exh-clausal,"[0, 0, 0]",1,,2 + 9 = ?,,"[0, 1]",3,0
False,1,3,9 + 5 = ?,There is a circle.,1569,False,2,10.8459,"[12, 8, 4]","[7, 6, 1]",filler,1,True,"[0, 1]","[0, 0, 0]",,"[14, 9, 5]",3781,1,,undefined,,exh-clausal,"[4, 0, 0]",1,,8 + 4 = ?,,"[0, 1]",3,0
True,1,1,Some of the symbols are stars.,Some of the symbols are stars.,1716,True,0,10.8459,"[7, 8, 0]","[6, 5, 3]",response,1,True,"[0, 1]","[0, 0, 0]",,"[6, 8, 3]",4574,1,,undefined,,exh-clausal,"[0, 0, 0]",1,,Some of the symbols are circles.,,"[0, 1]",3,1
True,1,3,0 + 1 = ?,Some of the symbols are spades.,1505,True,0,10.8459,"[12, 8, 4]","[3, 5, 6]",response,1,True,"[0, 1]","[0, 0, 0]",,"[1, 0, 1]",3301,0,,undefined,,exh-clausal,"[2, 0, 0]",1,,8 + 4 = ?,,"[1, 0]",3,0
True,0,0,Some of the symbols are diamonds.,Some of the symbols are clubs.,1597,True,0,10.8459,"[7, 2, 1]","[1, 8, 2]",response,0,True,"[1, 0]","[0, 0, 0]",,"[0, 3, 5]",4857,1,,undefined,,exh-clausal,"[0, 0, 0]",1,,Some of the symbols are circles.,,"[0, 1]",3,1
True,1,1,There is a heart.,There is a spade.,1778,True,2,10.8459,"[5, 4, 6]","[3, 7, 0]",filler,1,True,"[0, 1]","[0, 0, 0]",,"[4, 9, 0]",5597,1,,undefined,,exh-clausal,"[0, 0, 0]",1,,There is a square.,,"[0, 1]",3,1
True,1,2,"There is a circle, but there is nothing besides a circle.",There is a tick.,2069,True,2,10.8459,"[2, 0, 8]","[2, 1, 6]",filler,1,True,"[0, 1]","[0, 0, 0]",,"[7, 9, 2]",7288,1,,undefined,,exh-clausal,"[0, 0, 0]",1,,"There is a tick, but there is nothing besides a tick.",,"[0, 1]",3,1
True,1,0,There is a note.,There is a tick.,1590,True,2,10.8459,"[4, 1, 2]","[2, 9, 6]",response,1,True,"[0, 1]","[0, 0, 0]",,"[8, 1, 5]",4267,1,,undefined,,exh-clausal,"[0, 0, 0]",0,,There is a heart.,,"[0, 1]",3,1
True,0,1,There are four stars.,There are four diamonds.,2742,True,1,10.8459,"[3, 6, 7]","[0, 5, 8]",response,0,True,"[1, 0]","[0, 0, 0]",,"[6, 1, 9]",5004,0,,undefined,,exh-clausal,"[0, 0, 0]",1,,There are four spades.,,"[1, 0]",3,0
False,0,3,9 + 5 = ?,There is a note.,975,False,2,10.8459,"[15, 6, 9]","[8, 9, 5]",response,0,True,"[1, 0]","[9, 0, 0]",,"[14, 9, 5]",3310,0,,undefined,,exh-clausal,"[8, 0, 0]",0,,6 + 9 = ?,,"[1, 0]",3,1
True,0,1,There is a diamond.,There is a square.,1613,True,2,10.8459,"[9, 3, 6]","[5, 4, 7]",filler,0,True,"[1, 0]","[0, 0, 0]",,"[0, 9, 8]",6673,1,,undefined,,exh-clausal,"[0, 0, 0]",1,,There is a triangle.,,"[0, 1]",3,1
True,0,2,"There are four squares, but there are no more than four squares.",There are four hearts.,1537,True,1,10.8459,"[1, 6, 7]","[4, 0, 9]",filler,0,True,"[1, 0]","[0, 0, 0]",,"[5, 8, 9]",4830,0,,undefined,,exh-clausal,"[0, 0, 0]",1,,"There are four clubs, but there are no more than four clubs.",,"[1, 0]",3,0
False,1,3,1 + 9 = ?,There are four clubs.,1428,False,1,10.8459,"[13, 6, 7]","[1, 0, 2]",filler,0,False,"[1, 0]","[4, 0, 0]",,"[10, 1, 9]",4515,1,,undefined,,exh-clausal,"[9, 0, 0]",1,,6 + 7 = ?,,"[0, 1]",3,0
False,1,3,9 + 0 = ?,There are four notes.,1669,False,1,10.8459,"[12, 6, 6]","[8, 3, 9]",response,0,False,"[1, 0]","[7, 0, 0]",,"[9, 9, 0]",3878,1,,undefined,,exh-clausal,"[4, 0, 0]",1,,6 + 6 = ?,,"[0, 1]",3,0
True,0,2,"There are four triangles, but there are no more than four triangles.",There are four ticks.,1288,True,1,10.8459,"[7, 1, 9]","[2, 4, 8]",response,0,True,"[1, 0]","[0, 0, 0]",,"[9, 4, 5]",5229,0,,undefined,,exh-clausal,"[0, 0, 0]",1,,"There are four circles, but there are no more than four circles.",,"[1, 0]",3,0
True,1,2,"Some of the symbols are triangles, but not all of them are triangles.",Some of the symbols are notes.,2222,True,0,10.8459,"[5, 0, 2]","[8, 0, 3]",response,1,True,"[0, 1]","[0, 0, 0]",,"[9, 8, 4]",7970,0,,undefined,,exh-clausal,"[0, 0, 0]",1,,"Some of the symbols are squares, but not all of them are squares.",,"[1, 0]",3,0
False,0,3,7 + 0 = ?,There is a diamond.,1757,False,2,10.8459,"[9, 7, 2]","[0, 1, 9]",response,1,False,"[0, 1]","[5, 0, 0]",,"[7, 7, 0]",4062,0,,undefined,,exh-clausal,"[3, 0, 0]",0,,7 + 2 = ?,,"[1, 0]",3,1
True,0,0,There are four stars.,There are four squares.,1305,True,1,10.8459,"[0, 5, 9]","[5, 8, 0]",response,0,True,"[1, 0]","[0, 0, 0]",,"[6, 9, 2]",4359,1,,undefined,,exh-clausal,"[0, 0, 0]",0,,There are four diamonds.,,"[0, 1]",3,1
True,0,2,"There is a square, but there is nothing besides a square.",There is a tick.,2087,True,2,10.8459,"[1, 3, 5]","[2, 6, 1]",filler,0,True,"[1, 0]","[0, 0, 0]",,"[5, 8, 2]",6717,0,,undefined,,exh-clausal,"[0, 0, 0]",1,,"There is a club, but there is nothing besides a club.",,"[1, 0]",3,0
True,0,2,"Some of the symbols are diamonds, but not all of them are diamonds.",Some of the symbols are diamonds.,2545,True,0,10.8459,"[0, 2, 4]","[0, 9, 6]",response,0,True,"[1, 0]","[0, 0, 0]",,"[0, 6, 4]",6213,1,,undefined,,exh-clausal,"[0, 0, 0]",1,,"Some of the symbols are diamonds, but not all of them are diamonds.",,"[0, 1]",3,1
True,1,1,Some of the symbols are squares.,Some of the symbols are spades.,2046,True,0,10.8459,"[3, 0, 4]","[3, 6, 7]",response,1,True,"[0, 1]","[0, 0, 0]",,"[5, 4, 7]",6239,0,,undefined,,exh-clausal,"[0, 0, 0]",1,,Some of the symbols are spades.,,"[1, 0]",3,0
True,1,0,Some of the symbols are diamonds.,Some of the symbols are stars.,1684,True,0,10.8459,"[6, 4, 8]","[6, 8, 7]",filler,1,True,"[0, 1]","[0, 0, 0]",,"[0, 3, 1]",6019,0,,undefined,,exh-clausal,"[0, 0, 0]",1,,Some of the symbols are stars.,,"[1, 0]",3,0
True,1,2,"There are four spades, but there are no more than four spades.",There are four hearts.,1666,True,1,10.8459,"[0, 4, 7]","[4, 2, 0]",filler,1,True,"[0, 1]","[0, 0, 0]",,"[3, 2, 6]",5840,1,,undefined,,exh-clausal,"[0, 0, 0]",1,,"There are four diamonds, but there are no more than four diamonds.",,"[0, 1]",3,1
True,1,0,There are four stars.,There are four triangles.,1336,True,1,10.8459,"[7, 4, 1]","[9, 0, 6]",filler,1,True,"[0, 1]","[0, 0, 0]",,"[6, 0, 9]",4530,0,,undefined,,exh-clausal,"[0, 0, 0]",1,,There are four circles.,,"[1, 0]",3,0
True,1,0,There are four circles.,There are four clubs.,1697,True,1,10.8459,"[2, 8, 1]","[1, 6, 0]",response,1,True,"[0, 1]","[0, 0, 0]",,"[7, 8, 9]",4136,1,,undefined,,exh-clausal,"[0, 0, 0]",1,,There are four ticks.,,"[0, 1]",3,1
True,1,1,Some of the symbols are circles.,Some of the symbols are circles.,3102,True,0,10.8459,"[1, 3, 5]","[7, 0, 9]",filler,1,True,"[0, 1]","[0, 0, 0]",,"[7, 6, 2]",6559,1,,undefined,,exh-clausal,"[0, 0, 0]",1,,Some of the symbols are clubs.,,"[0, 1]",3,1
,,,,,,,,9.7237,,,,,,,,1,,,,,undefined,bot_check,,,,"[0, 'Patricia']",,Patricia,,4,
True,1,2,"Some of the symbols are spades, but not all of them are spades.",Some of the symbols are notes.,2775,True,0,9.7237,"[5, 4, 6]","[8, 7, 6]",filler,1,True,"[0, 1]","[0, 0, 0]",,"[3, 8, 0]",10692,0,,undefined,,exh-clausal,"[0, 0, 0]",1,,"Some of the symbols are squares, but not all of them are squares.",,"[1, 0]",4,0
False,1,3,7 + 3 = ?,Some of the symbols are squares.,2295,False,0,9.7237,"[14, 6, 8]","[5, 8, 0]",response,0,False,"[1, 0]","[8, 0, 0]",,"[10, 7, 3]",6577,1,,undefined,,exh-clausal,"[5, 0, 0]",1,,6 + 8 = ?,,"[0, 1]",4,0
True,1,3,3 + 0 = ?,There are four hearts.,1600,False,1,9.7237,"[10, 5, 5]","[4, 5, 0]",response,0,False,"[1, 0]","[2, 0, 0]",,"[3, 3, 0]",4520,0,,undefined,,exh-clausal,"[7, 0, 0]",1,,5 + 5 = ?,,"[1, 0]",4,0
True,1,2,"There is a note, but there is nothing besides a note.",There is a spade.,1639,True,2,9.7237,"[6, 1, 9]","[3, 8, 2]",filler,1,True,"[0, 1]","[0, 0, 0]",,"[8, 7, 0]",7322,1,,undefined,,exh-clausal,"[0, 0, 0]",1,,"There is a star, but there is nothing besides a star.",,"[0, 1]",4,1
